"success","trial_type","trial_index","time_elapsed","internal_node_id","label_stranger","label_friend","width","height","webaudio","browser","browser_version","mobile","os","fullscreen","vsync_rate","webcam","microphone","screen","date","time","screen_height","screen_width","researcher","sona_id","prolific_id","study_id","session_id","rt","stimulus","response","question_order","timeout","failed_images","failed_audio","failed_video","trial_duration","shape","trial_number","answer","answer_correct","correct","condition","label_condition","block_number","file","block","correct_response","Illusion_Type","Illusion_Strength","Illusion_Difference","isi","fixation_cross","type","illusion_strength","illusion_difference"
"true","fullscreen","0","1979","0.0-0.0","Eminem","xxx","","","","","","","","","","","","","","","","","","","","","","","","","","","","","","","","","","","","","","","","","","","","","","","","",""
"","browser-check","1","2986","0.0-1.0","Eminem","xxx","1090","571","true","chrome","122.0.0","false","Mac OS","true","60.2","true","true","browser_info","11/03/2024","19:08:37","571","1090","","","","","","","","","","","","","","","","","","","","","","","","","","","","","","","","",""
"","html-button-response","2","4138","0.0-2.0","Eminem","xxx","","","","","","","","","","","","consent","","","","","","","","","","1149","<img src='https://u-paris.fr/wp-content/uploads/2022/03/Universite_Paris-Cite-logo.jpeg' width='300px' align='right'/><br><br><br><br><br><h1>Consent form</h1><p align='left'>In this study, you will have to complete two questionnaires and two tasks.</p><p align='left'>The questionnaires and tasks must be completed alone. <b>Your participation is confidential and your answers will be anonymized.</b> We do not collect your IP address or any other identifying information.</p><p align='left'>Your data are very valuable for us. In participating, you will contribute to scientific progress. <b>In participating, you accept to follow the instructions and to supply honest answers.</b> If you don't want to participate, you can simply close your browser.</p><p align='left'><br><sub><sup>If you have any question regarding the study, you can email Baptiste Fauvel (baptiste.fauvel@u-paris.fr). This study has been reviewed and approved by the ethical committee of the University of Paris .</sup></sub></p>","0","","","","","","","","","","","","","","","","","","","","","","","","",""
"","survey-multi-choice","3","7078","0.0-3.0-0.0","Eminem","xxx","","","","","","","","","","","","demographics_1","","","","","","","","","","2936","","{""sex"":""Male"",""student"":"""",""education"":"""",""language"":""""}","[0,1,2,3]","","","","","","","","","","","","","","","","","","","","","","","",""
"","survey-text","4","8632","0.0-3.0-1.0","Eminem","xxx","","","","","","","","","","","","demographics_2","","","","","","","","","","1548","","{""age"":"""",""country"":""""}","","","","","","","","","","","","","","","","","","","","","","","","",""
"","html-button-response","5","10347","0.0-4.0","Eminem","xxx","","","","","","","","","","","","","","","","","","","","","","1713","<p style=""font-size:18px; color:black;"">Have you <b>ever</b> been diagnosed with any of the following pathologies ?</p>","1","","","","","","","","","","","","","","","","","","","","","","","","",""
"","html-button-response","6","11237","0.0-6.0","Eminem","xxx","","","","","","","","","","","","","","","","","","","","","","889","<p style=""font-size:18px; color:black;"">Are you <b>currently</b> diagnosed with any of the following pathologies ?</p>","1","","","","","","","","","","","","","","","","","","","","","","","","",""
"","html-button-response","7","12534","0.0-8.0","Eminem","xxx","","","","","","","","","","","","","","","","","","","","","","1296","<p style=""font-size:18px; color:black;"">Do you meditate regularly? E.g. at least once a week?</p>","1","","","","","","","","","","","","","","","","","","","","","","","","",""
"","html-button-response","8","13110","0.0-10.0","Eminem","xxx","","","","","","","","","","","","","","","","","","","","","","575","<p style=""font-size:18px; color:black;"">Have you taken a psychedelic drug in the last 6 months? (E.g. LSD, psilocybin mushrooms, ayahuasca)</p>","1","","","","","","","","","","","","","","","","","","","","","","","","",""
"","survey-multi-choice","9","15858","0.0-11.0","Eminem","xxx","","","","","","","","","","","","","","","","","","","","","","2747","","{""psych_freq_english"":""Never""}","[0]","","","","","","","","","","","","","","","","","","","","","","","",""
"true","preload","10","16005","0.0-12.0","Eminem","xxx","","","","","","","","","","","","","","","","","","","","","","","","","","false","[]","[]","[]","","","","","","","","","","","","","","","","","","","",""
"","html-button-response","11","17197","0.0-13.0","Eminem","xxx","","","","","","","","","","","","SAT_instructions_general","","","","","","","","","","1191","<h1>Shape-Label Association Game</h1><p>In this task, you will be shown some <b>shapes</b> that will be assigned to a <b>label</b> (You, Your Best Friend and a Stranger).</p><p>To personalize this game to your own experience, you will first select who you want the friend and the stranger to be.</p>","0","","","","","","","","","","","","","","","","","","","","","","","","",""
"","survey-multi-choice","12","19660","0.0-14.0","Eminem","xxx","","","","","","","","","","","","SAT_strangerlabel","","","","","","","","","","2461","","{""label_stranger"":""Eminem""}","[0]","","","","","","","","","","","","","","","","","","","","","","","",""
"","survey-text","13","22026","0.0-15.0","Eminem","xxx","","","","","","","","","","","","SAT_friendlabel","","","","","","","","","","2359","","{""label_friend"":""xxx""}","","","","","","","","","","","","","","","","","","","","","","","","",""
"","html-button-response","14","22815","0.0-16.0","Eminem","xxx","","","","","","","","","","","","SAT_instructions_practice","","","","","","","","","","788","<h1>Practice</h1><p>Each label (i.e., You, Best Friend, Stranger) will be assigned to a specific shape (circle, square or triangle)</p><p>During the practice phase, you will be presented with one of the shapes above a fixation cross, together with the three labels below the fixation cross.</p><p>Your task is to select the label that corresponds with the presented shape as quickly and accurately as possible</p><p>If the correct label is on the <b>left</b>, press <b>'v'</b>.</p><p>If the correct label is in the <b>middle</b>, press <b>'b'</b>.</p><p>If the correct label is on the <b>right</b>, press <b>'n'</b>.</p><br>","0","","","","","","","","","","","","","","","","","","","","","","","","",""
"","html-button-response","15","26278","0.0-17.0","Eminem","xxx","","","","","","","","","","","","SAT_assignmentscreen","","","","","","","","","","3461","<h1>Instructions</h1><div id ='align-middle'><b>You</b> will be represented by a  <b>circle</b>  <img src= https://realitybending.github.io/IllusionGameSelfAssociation/experiment/SelfAssociation/stimuli/circle.png height=40></img></div><br><div id ='align-middle'><b>Eminem</b> will be represented by a  <b>triangle</b>  <img src= https://realitybending.github.io/IllusionGameSelfAssociation/experiment/SelfAssociation/stimuli/triangle.png height=40></img></div><br><div id = 'align-middle'><b>xxx</b> will be represented by a  <b>square</b>  <img src= https://realitybending.github.io/IllusionGameSelfAssociation/experiment/SelfAssociation/stimuli/square.png height=40></img></div><br>","0","","","","","","","","","","","","","","","","","","","","","","","","",""
"","html-keyboard-response","16","26780","0.0-18.0-0.0","Eminem","xxx","","","","","","","","","","","","sat_fixationcross","","","","","","","","","","null","<div  style='font-size:500%; position:fixed; text-align: center; top:50%; bottom:50%; right:20%; left:20%'>+</div>","null","","","","","","500","","","","","","","","","","","","","","","","","","",""
"","html-keyboard-response","17","28145","0.0-18.0-1.0","Eminem","xxx","","","","","","","","","","","","sat_practicetrial","","","","","","","","","","1364","<div style='bottom:60%; right:20%; left:20%; position:fixed'><img src=https://realitybending.github.io/IllusionGameSelfAssociation/experiment/SelfAssociation/stimuli/triangle.png height=20%></img></div><div  style='font-size:500%; position:fixed; text-align: center; top:50%; bottom:50%; right:20%; left:20%'>+</div><div style = ""font-size:300%; text-align: center; position:fixed; top:70%; left:20%""><b>You</b></br></br></br></br>v</div><div style = ""font-size:300%; text-align: center; position:fixed; top:70%; right:20%; left:20%""><b>Eminem</b></br></br></br></br>b</div><div style = ""font-size:300%; text-align: center; position:fixed; top:70%; right:20%""><b>xxx</b></br></br></br></br>n</div>","b","","","","","","","triangle","1","Eminem","Eminem","true","Stranger","","","","","","","","","","","","",""
"","html-keyboard-response","18","28647","0.0-18.0-2.0","Eminem","xxx","","","","","","","","","","","","sat_feedback","","","","","","","","","","null","<p style = 'font-size: 300%; color:green'>Correct!</p>","null","","","","","","","","","","","","","","","","","","","","","","","","",""
"","html-keyboard-response","19","29149","0.0-18.0-0.1","Eminem","xxx","","","","","","","","","","","","sat_fixationcross","","","","","","","","","","null","<div  style='font-size:500%; position:fixed; text-align: center; top:50%; bottom:50%; right:20%; left:20%'>+</div>","null","","","","","","500","","","","","","","","","","","","","","","","","","",""
"","html-keyboard-response","20","29919","0.0-18.0-1.1","Eminem","xxx","","","","","","","","","","","","sat_practicetrial","","","","","","","","","","769","<div style='bottom:60%; right:20%; left:20%; position:fixed'><img src=https://realitybending.github.io/IllusionGameSelfAssociation/experiment/SelfAssociation/stimuli/square.png height=20%></img></div><div  style='font-size:500%; position:fixed; text-align: center; top:50%; bottom:50%; right:20%; left:20%'>+</div><div style = ""font-size:300%; text-align: center; position:fixed; top:70%; left:20%""><b>You</b></br></br></br></br>v</div><div style = ""font-size:300%; text-align: center; position:fixed; top:70%; right:20%; left:20%""><b>Eminem</b></br></br></br></br>b</div><div style = ""font-size:300%; text-align: center; position:fixed; top:70%; right:20%""><b>xxx</b></br></br></br></br>n</div>","n","","","","","","","square","2","xxx","xxx","true","Friend","","","","","","","","","","","","",""
"","html-keyboard-response","21","30421","0.0-18.0-2.1","Eminem","xxx","","","","","","","","","","","","sat_feedback","","","","","","","","","","null","<p style = 'font-size: 300%; color:green'>Correct!</p>","null","","","","","","","","","","","","","","","","","","","","","","","","",""
"","html-keyboard-response","22","30923","0.0-18.0-0.2","Eminem","xxx","","","","","","","","","","","","sat_fixationcross","","","","","","","","","","null","<div  style='font-size:500%; position:fixed; text-align: center; top:50%; bottom:50%; right:20%; left:20%'>+</div>","null","","","","","","500","","","","","","","","","","","","","","","","","","",""
"","html-keyboard-response","23","31518","0.0-18.0-1.2","Eminem","xxx","","","","","","","","","","","","sat_practicetrial","","","","","","","","","","594","<div style='bottom:60%; right:20%; left:20%; position:fixed'><img src=https://realitybending.github.io/IllusionGameSelfAssociation/experiment/SelfAssociation/stimuli/square.png height=20%></img></div><div  style='font-size:500%; position:fixed; text-align: center; top:50%; bottom:50%; right:20%; left:20%'>+</div><div style = ""font-size:300%; text-align: center; position:fixed; top:70%; left:20%""><b>You</b></br></br></br></br>v</div><div style = ""font-size:300%; text-align: center; position:fixed; top:70%; right:20%; left:20%""><b>Eminem</b></br></br></br></br>b</div><div style = ""font-size:300%; text-align: center; position:fixed; top:70%; right:20%""><b>xxx</b></br></br></br></br>n</div>","n","","","","","","","square","3","xxx","xxx","true","Friend","","","","","","","","","","","","",""
"","html-keyboard-response","24","32020","0.0-18.0-2.2","Eminem","xxx","","","","","","","","","","","","sat_feedback","","","","","","","","","","null","<p style = 'font-size: 300%; color:green'>Correct!</p>","null","","","","","","","","","","","","","","","","","","","","","","","","",""
"","html-keyboard-response","25","32521","0.0-18.0-0.3","Eminem","xxx","","","","","","","","","","","","sat_fixationcross","","","","","","","","","","null","<div  style='font-size:500%; position:fixed; text-align: center; top:50%; bottom:50%; right:20%; left:20%'>+</div>","null","","","","","","500","","","","","","","","","","","","","","","","","","",""
"","html-keyboard-response","26","33459","0.0-18.0-1.3","Eminem","xxx","","","","","","","","","","","","sat_practicetrial","","","","","","","","","","937","<div style='bottom:60%; right:20%; left:20%; position:fixed'><img src=https://realitybending.github.io/IllusionGameSelfAssociation/experiment/SelfAssociation/stimuli/square.png height=20%></img></div><div  style='font-size:500%; position:fixed; text-align: center; top:50%; bottom:50%; right:20%; left:20%'>+</div><div style = ""font-size:300%; text-align: center; position:fixed; top:70%; left:20%""><b>You</b></br></br></br></br>v</div><div style = ""font-size:300%; text-align: center; position:fixed; top:70%; right:20%; left:20%""><b>Eminem</b></br></br></br></br>b</div><div style = ""font-size:300%; text-align: center; position:fixed; top:70%; right:20%""><b>xxx</b></br></br></br></br>n</div>","n","","","","","","","square","4","xxx","xxx","true","Friend","","","","","","","","","","","","",""
"","html-keyboard-response","27","33961","0.0-18.0-2.3","Eminem","xxx","","","","","","","","","","","","sat_feedback","","","","","","","","","","null","<p style = 'font-size: 300%; color:green'>Correct!</p>","null","","","","","","","","","","","","","","","","","","","","","","","","",""
"","html-keyboard-response","28","34462","0.0-18.0-0.4","Eminem","xxx","","","","","","","","","","","","sat_fixationcross","","","","","","","","","","null","<div  style='font-size:500%; position:fixed; text-align: center; top:50%; bottom:50%; right:20%; left:20%'>+</div>","null","","","","","","500","","","","","","","","","","","","","","","","","","",""
"","html-keyboard-response","29","35122","0.0-18.0-1.4","Eminem","xxx","","","","","","","","","","","","sat_practicetrial","","","","","","","","","","660","<div style='bottom:60%; right:20%; left:20%; position:fixed'><img src=https://realitybending.github.io/IllusionGameSelfAssociation/experiment/SelfAssociation/stimuli/square.png height=20%></img></div><div  style='font-size:500%; position:fixed; text-align: center; top:50%; bottom:50%; right:20%; left:20%'>+</div><div style = ""font-size:300%; text-align: center; position:fixed; top:70%; left:20%""><b>You</b></br></br></br></br>v</div><div style = ""font-size:300%; text-align: center; position:fixed; top:70%; right:20%; left:20%""><b>Eminem</b></br></br></br></br>b</div><div style = ""font-size:300%; text-align: center; position:fixed; top:70%; right:20%""><b>xxx</b></br></br></br></br>n</div>","n","","","","","","","square","5","xxx","xxx","true","Friend","","","","","","","","","","","","",""
"","html-keyboard-response","30","35624","0.0-18.0-2.4","Eminem","xxx","","","","","","","","","","","","sat_feedback","","","","","","","","","","null","<p style = 'font-size: 300%; color:green'>Correct!</p>","null","","","","","","","","","","","","","","","","","","","","","","","","",""
"","html-keyboard-response","31","36126","0.0-18.0-0.5","Eminem","xxx","","","","","","","","","","","","sat_fixationcross","","","","","","","","","","null","<div  style='font-size:500%; position:fixed; text-align: center; top:50%; bottom:50%; right:20%; left:20%'>+</div>","null","","","","","","500","","","","","","","","","","","","","","","","","","",""
"","html-keyboard-response","32","36959","0.0-18.0-1.5","Eminem","xxx","","","","","","","","","","","","sat_practicetrial","","","","","","","","","","832","<div style='bottom:60%; right:20%; left:20%; position:fixed'><img src=https://realitybending.github.io/IllusionGameSelfAssociation/experiment/SelfAssociation/stimuli/circle.png height=20%></img></div><div  style='font-size:500%; position:fixed; text-align: center; top:50%; bottom:50%; right:20%; left:20%'>+</div><div style = ""font-size:300%; text-align: center; position:fixed; top:70%; left:20%""><b>You</b></br></br></br></br>v</div><div style = ""font-size:300%; text-align: center; position:fixed; top:70%; right:20%; left:20%""><b>Eminem</b></br></br></br></br>b</div><div style = ""font-size:300%; text-align: center; position:fixed; top:70%; right:20%""><b>xxx</b></br></br></br></br>n</div>","v","","","","","","","circle","6","You","You","true","Self","","","","","","","","","","","","",""
"","html-button-response","33","38338","0.0-19.0","Eminem","xxx","","","","","","","","","","","","sat_practice_end","","","","","","","","","","1378","<h1>Congratulations!</h1><p>You have completed the training.</p>","0","","","","","","","","","","","","","","","","","","","","","","","","",""
"","html-button-response","34","40978","0.0-20.0","Eminem","xxx","","","","","","","","","","","","matching_instructions","","","","","","","","","","2639","<h1>Instructions</h1><p>In this part of the game, the previous shapes will be re-assigned to the labels.</p><p>Your task will be then to decide if the presented shape matches their newly assigned label as quickly and accurately as possible.</p><p>If the shape-label pair is a <b>match</b>, press <b>'e'</b>.</p><p>If the shape-label pair is <b>not a match</b>, press <b>'i'</b></p><br><p>Good luck!</p>","0","","","","","","","","","","","","","","","","","","","","","","","","",""
"","html-button-response","35","42044","0.0-21.0","Eminem","xxx","","","","","","","","","","","","SAT_assignmentscreen","","","","","","","","","","1064","<h1>Instructions</h1><div id ='align-middle'><b>You</b> will be represented by a  <b>triangle</b>  <img src= https://realitybending.github.io/IllusionGameSelfAssociation/experiment/SelfAssociation/stimuli/triangle.png height=40></img></div><br><div id ='align-middle'><b>Eminem</b> will be represented by a  <b>square</b>  <img src= https://realitybending.github.io/IllusionGameSelfAssociation/experiment/SelfAssociation/stimuli/square.png height=40></img></div><br><div id = 'align-middle'><b>xxx</b> will be represented by a  <b>circle</b>  <img src= https://realitybending.github.io/IllusionGameSelfAssociation/experiment/SelfAssociation/stimuli/circle.png height=40></img></div><br>","0","","","","","","","","","","","","","","","","","","","","","","","","",""
"","html-keyboard-response","36","42545","0.0-22.0-0.0","Eminem","xxx","","","","","","","","","","","","sat_fixationcross","","","","","","","","","","null","<div  style='font-size:500%; position:fixed; text-align: center; top:50%; bottom:50%; right:20%; left:20%'>+</div>","null","","","","","","500","","","","","","","","","","","","","","","","","","",""
"","html-keyboard-response","37","43413","0.0-22.0-1.0","Eminem","xxx","","","","","","","","","","","","sat_trial","","","","","","","","","","867","<div style='bottom:60%; right:20%; left:20%; position:fixed'><img src=https://realitybending.github.io/IllusionGameSelfAssociation/experiment/SelfAssociation/stimuli/circle.png height=20%></img></div><div  style='font-size:500%; position:fixed; text-align: center; top:50%; bottom:50%; right:20%; left:20%'>+</div><div style = ""font-size:300%; text-align: center; position:fixed; top:70%; right:20%; left:20%""><b>You</div>","e","","","","","","","circle","1","match","mismatch","false","","Self","1","","","","","","","","","","",""
"","html-keyboard-response","38","43914","0.0-22.0-2.0","Eminem","xxx","","","","","","","","","","","","sat_feedback","","","","","","","","","","null","<p style = 'font-size: 300%; color:red'>Incorrect!</p>","null","","","","","","","","","","","","","","","","","","","","","","","","",""
"","html-keyboard-response","39","44415","0.0-22.0-0.1","Eminem","xxx","","","","","","","","","","","","sat_fixationcross","","","","","","","","","","null","<div  style='font-size:500%; position:fixed; text-align: center; top:50%; bottom:50%; right:20%; left:20%'>+</div>","null","","","","","","500","","","","","","","","","","","","","","","","","","",""
"","html-keyboard-response","40","44918","0.0-22.0-1.1","Eminem","xxx","","","","","","","","","","","","sat_trial","","","","","","","","","","502","<div style='bottom:60%; right:20%; left:20%; position:fixed'><img src=https://realitybending.github.io/IllusionGameSelfAssociation/experiment/SelfAssociation/stimuli/triangle.png height=20%></img></div><div  style='font-size:500%; position:fixed; text-align: center; top:50%; bottom:50%; right:20%; left:20%'>+</div><div style = ""font-size:300%; text-align: center; position:fixed; top:70%; right:20%; left:20%""><b>You</div>","e","","","","","","","triangle","2","match","match","true","","Self","1","","","","","","","","","","",""
"","html-keyboard-response","41","45419","0.0-22.0-2.1","Eminem","xxx","","","","","","","","","","","","sat_feedback","","","","","","","","","","null","<p style = 'font-size: 300%; color:green'>Correct!</p>","null","","","","","","","","","","","","","","","","","","","","","","","","",""
"","html-keyboard-response","42","45922","0.0-22.0-0.2","Eminem","xxx","","","","","","","","","","","","sat_fixationcross","","","","","","","","","","null","<div  style='font-size:500%; position:fixed; text-align: center; top:50%; bottom:50%; right:20%; left:20%'>+</div>","null","","","","","","500","","","","","","","","","","","","","","","","","","",""
"","html-keyboard-response","43","46286","0.0-22.0-1.2","Eminem","xxx","","","","","","","","","","","","sat_trial","","","","","","","","","","364","<div style='bottom:60%; right:20%; left:20%; position:fixed'><img src=https://realitybending.github.io/IllusionGameSelfAssociation/experiment/SelfAssociation/stimuli/square.png height=20%></img></div><div  style='font-size:500%; position:fixed; text-align: center; top:50%; bottom:50%; right:20%; left:20%'>+</div><div style = ""font-size:300%; text-align: center; position:fixed; top:70%; right:20%; left:20%""><b>Eminem</div>","e","","","","","","","square","3","match","match","true","","Stranger","1","","","","","","","","","","",""
"","html-keyboard-response","44","46787","0.0-22.0-2.2","Eminem","xxx","","","","","","","","","","","","sat_feedback","","","","","","","","","","null","<p style = 'font-size: 300%; color:green'>Correct!</p>","null","","","","","","","","","","","","","","","","","","","","","","","","",""
"","html-keyboard-response","45","47289","0.0-22.0-0.3","Eminem","xxx","","","","","","","","","","","","sat_fixationcross","","","","","","","","","","null","<div  style='font-size:500%; position:fixed; text-align: center; top:50%; bottom:50%; right:20%; left:20%'>+</div>","null","","","","","","500","","","","","","","","","","","","","","","","","","",""
"","html-keyboard-response","46","47694","0.0-22.0-1.3","Eminem","xxx","","","","","","","","","","","","sat_trial","","","","","","","","","","405","<div style='bottom:60%; right:20%; left:20%; position:fixed'><img src=https://realitybending.github.io/IllusionGameSelfAssociation/experiment/SelfAssociation/stimuli/circle.png height=20%></img></div><div  style='font-size:500%; position:fixed; text-align: center; top:50%; bottom:50%; right:20%; left:20%'>+</div><div style = ""font-size:300%; text-align: center; position:fixed; top:70%; right:20%; left:20%""><b>xxx</div>","e","","","","","","","circle","4","match","match","true","","Friend","1","","","","","","","","","","",""
"","html-keyboard-response","47","48195","0.0-22.0-2.3","Eminem","xxx","","","","","","","","","","","","sat_feedback","","","","","","","","","","null","<p style = 'font-size: 300%; color:green'>Correct!</p>","null","","","","","","","","","","","","","","","","","","","","","","","","",""
"","html-keyboard-response","48","48697","0.0-22.0-0.4","Eminem","xxx","","","","","","","","","","","","sat_fixationcross","","","","","","","","","","null","<div  style='font-size:500%; position:fixed; text-align: center; top:50%; bottom:50%; right:20%; left:20%'>+</div>","null","","","","","","500","","","","","","","","","","","","","","","","","","",""
"","html-keyboard-response","49","49107","0.0-22.0-1.4","Eminem","xxx","","","","","","","","","","","","sat_trial","","","","","","","","","","409","<div style='bottom:60%; right:20%; left:20%; position:fixed'><img src=https://realitybending.github.io/IllusionGameSelfAssociation/experiment/SelfAssociation/stimuli/circle.png height=20%></img></div><div  style='font-size:500%; position:fixed; text-align: center; top:50%; bottom:50%; right:20%; left:20%'>+</div><div style = ""font-size:300%; text-align: center; position:fixed; top:70%; right:20%; left:20%""><b>xxx</div>","e","","","","","","","circle","5","match","match","true","","Friend","1","","","","","","","","","","",""
"","html-keyboard-response","50","49607","0.0-22.0-2.4","Eminem","xxx","","","","","","","","","","","","sat_feedback","","","","","","","","","","null","<p style = 'font-size: 300%; color:green'>Correct!</p>","null","","","","","","","","","","","","","","","","","","","","","","","","",""
"","html-keyboard-response","51","50109","0.0-22.0-0.5","Eminem","xxx","","","","","","","","","","","","sat_fixationcross","","","","","","","","","","null","<div  style='font-size:500%; position:fixed; text-align: center; top:50%; bottom:50%; right:20%; left:20%'>+</div>","null","","","","","","500","","","","","","","","","","","","","","","","","","",""
"","html-keyboard-response","52","50221","0.0-22.0-1.5","Eminem","xxx","","","","","","","","","","","","sat_trial","","","","","","","","","","111","<div style='bottom:60%; right:20%; left:20%; position:fixed'><img src=https://realitybending.github.io/IllusionGameSelfAssociation/experiment/SelfAssociation/stimuli/square.png height=20%></img></div><div  style='font-size:500%; position:fixed; text-align: center; top:50%; bottom:50%; right:20%; left:20%'>+</div><div style = ""font-size:300%; text-align: center; position:fixed; top:70%; right:20%; left:20%""><b>xxx</div>","e","","","","","","","square","6","match","mismatch","false","","Friend","1","","","","","","","","","","",""
"","html-keyboard-response","53","50722","0.0-22.0-2.5","Eminem","xxx","","","","","","","","","","","","sat_feedback","","","","","","","","","","null","<p style = 'font-size: 300%; color:red'>Incorrect!</p>","null","","","","","","","","","","","","","","","","","","","","","","","","",""
"","html-keyboard-response","54","51224","0.0-22.0-0.6","Eminem","xxx","","","","","","","","","","","","sat_fixationcross","","","","","","","","","","null","<div  style='font-size:500%; position:fixed; text-align: center; top:50%; bottom:50%; right:20%; left:20%'>+</div>","null","","","","","","500","","","","","","","","","","","","","","","","","","",""
"","html-keyboard-response","55","51544","0.0-22.0-1.6","Eminem","xxx","","","","","","","","","","","","sat_trial","","","","","","","","","","319","<div style='bottom:60%; right:20%; left:20%; position:fixed'><img src=https://realitybending.github.io/IllusionGameSelfAssociation/experiment/SelfAssociation/stimuli/circle.png height=20%></img></div><div  style='font-size:500%; position:fixed; text-align: center; top:50%; bottom:50%; right:20%; left:20%'>+</div><div style = ""font-size:300%; text-align: center; position:fixed; top:70%; right:20%; left:20%""><b>Eminem</div>","e","","","","","","","circle","7","match","mismatch","false","","Stranger","1","","","","","","","","","","",""
"","html-keyboard-response","56","52045","0.0-22.0-2.6","Eminem","xxx","","","","","","","","","","","","sat_feedback","","","","","","","","","","null","<p style = 'font-size: 300%; color:red'>Incorrect!</p>","null","","","","","","","","","","","","","","","","","","","","","","","","",""
"","html-keyboard-response","57","52548","0.0-22.0-0.7","Eminem","xxx","","","","","","","","","","","","sat_fixationcross","","","","","","","","","","null","<div  style='font-size:500%; position:fixed; text-align: center; top:50%; bottom:50%; right:20%; left:20%'>+</div>","null","","","","","","500","","","","","","","","","","","","","","","","","","",""
"","html-keyboard-response","58","52955","0.0-22.0-1.7","Eminem","xxx","","","","","","","","","","","","sat_trial","","","","","","","","","","407","<div style='bottom:60%; right:20%; left:20%; position:fixed'><img src=https://realitybending.github.io/IllusionGameSelfAssociation/experiment/SelfAssociation/stimuli/square.png height=20%></img></div><div  style='font-size:500%; position:fixed; text-align: center; top:50%; bottom:50%; right:20%; left:20%'>+</div><div style = ""font-size:300%; text-align: center; position:fixed; top:70%; right:20%; left:20%""><b>xxx</div>","e","","","","","","","square","8","match","mismatch","false","","Friend","1","","","","","","","","","","",""
"","html-keyboard-response","59","53457","0.0-22.0-2.7","Eminem","xxx","","","","","","","","","","","","sat_feedback","","","","","","","","","","null","<p style = 'font-size: 300%; color:red'>Incorrect!</p>","null","","","","","","","","","","","","","","","","","","","","","","","","",""
"","html-keyboard-response","60","53960","0.0-22.0-0.8","Eminem","xxx","","","","","","","","","","","","sat_fixationcross","","","","","","","","","","null","<div  style='font-size:500%; position:fixed; text-align: center; top:50%; bottom:50%; right:20%; left:20%'>+</div>","null","","","","","","500","","","","","","","","","","","","","","","","","","",""
"","html-keyboard-response","61","54444","0.0-22.0-1.8","Eminem","xxx","","","","","","","","","","","","sat_trial","","","","","","","","","","484","<div style='bottom:60%; right:20%; left:20%; position:fixed'><img src=https://realitybending.github.io/IllusionGameSelfAssociation/experiment/SelfAssociation/stimuli/square.png height=20%></img></div><div  style='font-size:500%; position:fixed; text-align: center; top:50%; bottom:50%; right:20%; left:20%'>+</div><div style = ""font-size:300%; text-align: center; position:fixed; top:70%; right:20%; left:20%""><b>xxx</div>","e","","","","","","","square","9","match","mismatch","false","","Friend","1","","","","","","","","","","",""
"","html-keyboard-response","62","54945","0.0-22.0-2.8","Eminem","xxx","","","","","","","","","","","","sat_feedback","","","","","","","","","","null","<p style = 'font-size: 300%; color:red'>Incorrect!</p>","null","","","","","","","","","","","","","","","","","","","","","","","","",""
"","html-keyboard-response","63","55447","0.0-22.0-0.9","Eminem","xxx","","","","","","","","","","","","sat_fixationcross","","","","","","","","","","null","<div  style='font-size:500%; position:fixed; text-align: center; top:50%; bottom:50%; right:20%; left:20%'>+</div>","null","","","","","","500","","","","","","","","","","","","","","","","","","",""
"","html-keyboard-response","64","56023","0.0-22.0-1.9","Eminem","xxx","","","","","","","","","","","","sat_trial","","","","","","","","","","575","<div style='bottom:60%; right:20%; left:20%; position:fixed'><img src=https://realitybending.github.io/IllusionGameSelfAssociation/experiment/SelfAssociation/stimuli/circle.png height=20%></img></div><div  style='font-size:500%; position:fixed; text-align: center; top:50%; bottom:50%; right:20%; left:20%'>+</div><div style = ""font-size:300%; text-align: center; position:fixed; top:70%; right:20%; left:20%""><b>Eminem</div>","e","","","","","","","circle","10","match","mismatch","false","","Stranger","1","","","","","","","","","","",""
"","html-keyboard-response","65","56524","0.0-22.0-2.9","Eminem","xxx","","","","","","","","","","","","sat_feedback","","","","","","","","","","null","<p style = 'font-size: 300%; color:red'>Incorrect!</p>","null","","","","","","","","","","","","","","","","","","","","","","","","",""
"","html-keyboard-response","66","57026","0.0-22.0-0.10","Eminem","xxx","","","","","","","","","","","","sat_fixationcross","","","","","","","","","","null","<div  style='font-size:500%; position:fixed; text-align: center; top:50%; bottom:50%; right:20%; left:20%'>+</div>","null","","","","","","500","","","","","","","","","","","","","","","","","","",""
"","html-keyboard-response","67","57297","0.0-22.0-1.10","Eminem","xxx","","","","","","","","","","","","sat_trial","","","","","","","","","","271","<div style='bottom:60%; right:20%; left:20%; position:fixed'><img src=https://realitybending.github.io/IllusionGameSelfAssociation/experiment/SelfAssociation/stimuli/triangle.png height=20%></img></div><div  style='font-size:500%; position:fixed; text-align: center; top:50%; bottom:50%; right:20%; left:20%'>+</div><div style = ""font-size:300%; text-align: center; position:fixed; top:70%; right:20%; left:20%""><b>You</div>","e","","","","","","","triangle","11","match","match","true","","Self","1","","","","","","","","","","",""
"","html-keyboard-response","68","57798","0.0-22.0-2.10","Eminem","xxx","","","","","","","","","","","","sat_feedback","","","","","","","","","","null","<p style = 'font-size: 300%; color:green'>Correct!</p>","null","","","","","","","","","","","","","","","","","","","","","","","","",""
"","html-keyboard-response","69","58300","0.0-22.0-0.11","Eminem","xxx","","","","","","","","","","","","sat_fixationcross","","","","","","","","","","null","<div  style='font-size:500%; position:fixed; text-align: center; top:50%; bottom:50%; right:20%; left:20%'>+</div>","null","","","","","","500","","","","","","","","","","","","","","","","","","",""
"","html-keyboard-response","70","58938","0.0-22.0-1.11","Eminem","xxx","","","","","","","","","","","","sat_trial","","","","","","","","","","637","<div style='bottom:60%; right:20%; left:20%; position:fixed'><img src=https://realitybending.github.io/IllusionGameSelfAssociation/experiment/SelfAssociation/stimuli/square.png height=20%></img></div><div  style='font-size:500%; position:fixed; text-align: center; top:50%; bottom:50%; right:20%; left:20%'>+</div><div style = ""font-size:300%; text-align: center; position:fixed; top:70%; right:20%; left:20%""><b>xxx</div>","e","","","","","","","square","12","match","mismatch","false","","Friend","1","","","","","","","","","","",""
"","html-keyboard-response","71","59439","0.0-22.0-2.11","Eminem","xxx","","","","","","","","","","","","sat_feedback","","","","","","","","","","null","<p style = 'font-size: 300%; color:red'>Incorrect!</p>","null","","","","","","","","","","","","","","","","","","","","","","","","",""
"","html-keyboard-response","72","59940","0.0-22.0-0.12","Eminem","xxx","","","","","","","","","","","","sat_fixationcross","","","","","","","","","","null","<div  style='font-size:500%; position:fixed; text-align: center; top:50%; bottom:50%; right:20%; left:20%'>+</div>","null","","","","","","500","","","","","","","","","","","","","","","","","","",""
"","html-keyboard-response","73","60512","0.0-22.0-1.12","Eminem","xxx","","","","","","","","","","","","sat_trial","","","","","","","","","","571","<div style='bottom:60%; right:20%; left:20%; position:fixed'><img src=https://realitybending.github.io/IllusionGameSelfAssociation/experiment/SelfAssociation/stimuli/square.png height=20%></img></div><div  style='font-size:500%; position:fixed; text-align: center; top:50%; bottom:50%; right:20%; left:20%'>+</div><div style = ""font-size:300%; text-align: center; position:fixed; top:70%; right:20%; left:20%""><b>xxx</div>","e","","","","","","","square","13","match","mismatch","false","","Friend","1","","","","","","","","","","",""
"","html-keyboard-response","74","61013","0.0-22.0-2.12","Eminem","xxx","","","","","","","","","","","","sat_feedback","","","","","","","","","","null","<p style = 'font-size: 300%; color:red'>Incorrect!</p>","null","","","","","","","","","","","","","","","","","","","","","","","","",""
"","html-keyboard-response","75","61514","0.0-22.0-0.13","Eminem","xxx","","","","","","","","","","","","sat_fixationcross","","","","","","","","","","null","<div  style='font-size:500%; position:fixed; text-align: center; top:50%; bottom:50%; right:20%; left:20%'>+</div>","null","","","","","","500","","","","","","","","","","","","","","","","","","",""
"","html-keyboard-response","76","61837","0.0-22.0-1.13","Eminem","xxx","","","","","","","","","","","","sat_trial","","","","","","","","","","323","<div style='bottom:60%; right:20%; left:20%; position:fixed'><img src=https://realitybending.github.io/IllusionGameSelfAssociation/experiment/SelfAssociation/stimuli/circle.png height=20%></img></div><div  style='font-size:500%; position:fixed; text-align: center; top:50%; bottom:50%; right:20%; left:20%'>+</div><div style = ""font-size:300%; text-align: center; position:fixed; top:70%; right:20%; left:20%""><b>xxx</div>","e","","","","","","","circle","14","match","match","true","","Friend","1","","","","","","","","","","",""
"","html-keyboard-response","77","62339","0.0-22.0-2.13","Eminem","xxx","","","","","","","","","","","","sat_feedback","","","","","","","","","","null","<p style = 'font-size: 300%; color:green'>Correct!</p>","null","","","","","","","","","","","","","","","","","","","","","","","","",""
"","html-keyboard-response","78","62840","0.0-22.0-0.14","Eminem","xxx","","","","","","","","","","","","sat_fixationcross","","","","","","","","","","null","<div  style='font-size:500%; position:fixed; text-align: center; top:50%; bottom:50%; right:20%; left:20%'>+</div>","null","","","","","","500","","","","","","","","","","","","","","","","","","",""
"","html-keyboard-response","79","63404","0.0-22.0-1.14","Eminem","xxx","","","","","","","","","","","","sat_trial","","","","","","","","","","563","<div style='bottom:60%; right:20%; left:20%; position:fixed'><img src=https://realitybending.github.io/IllusionGameSelfAssociation/experiment/SelfAssociation/stimuli/circle.png height=20%></img></div><div  style='font-size:500%; position:fixed; text-align: center; top:50%; bottom:50%; right:20%; left:20%'>+</div><div style = ""font-size:300%; text-align: center; position:fixed; top:70%; right:20%; left:20%""><b>You</div>","e","","","","","","","circle","15","match","mismatch","false","","Self","1","","","","","","","","","","",""
"","html-keyboard-response","80","63906","0.0-22.0-2.14","Eminem","xxx","","","","","","","","","","","","sat_feedback","","","","","","","","","","null","<p style = 'font-size: 300%; color:red'>Incorrect!</p>","null","","","","","","","","","","","","","","","","","","","","","","","","",""
"","html-keyboard-response","81","64408","0.0-22.0-0.15","Eminem","xxx","","","","","","","","","","","","sat_fixationcross","","","","","","","","","","null","<div  style='font-size:500%; position:fixed; text-align: center; top:50%; bottom:50%; right:20%; left:20%'>+</div>","null","","","","","","500","","","","","","","","","","","","","","","","","","",""
"","html-keyboard-response","82","64728","0.0-22.0-1.15","Eminem","xxx","","","","","","","","","","","","sat_trial","","","","","","","","","","320","<div style='bottom:60%; right:20%; left:20%; position:fixed'><img src=https://realitybending.github.io/IllusionGameSelfAssociation/experiment/SelfAssociation/stimuli/square.png height=20%></img></div><div  style='font-size:500%; position:fixed; text-align: center; top:50%; bottom:50%; right:20%; left:20%'>+</div><div style = ""font-size:300%; text-align: center; position:fixed; top:70%; right:20%; left:20%""><b>Eminem</div>","e","","","","","","","square","16","match","match","true","","Stranger","1","","","","","","","","","","",""
"","html-keyboard-response","83","65230","0.0-22.0-2.15","Eminem","xxx","","","","","","","","","","","","sat_feedback","","","","","","","","","","null","<p style = 'font-size: 300%; color:green'>Correct!</p>","null","","","","","","","","","","","","","","","","","","","","","","","","",""
"","html-keyboard-response","84","65732","0.0-22.0-0.16","Eminem","xxx","","","","","","","","","","","","sat_fixationcross","","","","","","","","","","null","<div  style='font-size:500%; position:fixed; text-align: center; top:50%; bottom:50%; right:20%; left:20%'>+</div>","null","","","","","","500","","","","","","","","","","","","","","","","","","",""
"","html-keyboard-response","85","66494","0.0-22.0-1.16","Eminem","xxx","","","","","","","","","","","","sat_trial","","","","","","","","","","761","<div style='bottom:60%; right:20%; left:20%; position:fixed'><img src=https://realitybending.github.io/IllusionGameSelfAssociation/experiment/SelfAssociation/stimuli/triangle.png height=20%></img></div><div  style='font-size:500%; position:fixed; text-align: center; top:50%; bottom:50%; right:20%; left:20%'>+</div><div style = ""font-size:300%; text-align: center; position:fixed; top:70%; right:20%; left:20%""><b>You</div>","e","","","","","","","triangle","17","match","match","true","","Self","1","","","","","","","","","","",""
"","html-keyboard-response","86","66995","0.0-22.0-2.16","Eminem","xxx","","","","","","","","","","","","sat_feedback","","","","","","","","","","null","<p style = 'font-size: 300%; color:green'>Correct!</p>","null","","","","","","","","","","","","","","","","","","","","","","","","",""
"","html-keyboard-response","87","67496","0.0-22.0-0.17","Eminem","xxx","","","","","","","","","","","","sat_fixationcross","","","","","","","","","","null","<div  style='font-size:500%; position:fixed; text-align: center; top:50%; bottom:50%; right:20%; left:20%'>+</div>","null","","","","","","500","","","","","","","","","","","","","","","","","","",""
"","html-keyboard-response","88","67648","0.0-22.0-1.17","Eminem","xxx","","","","","","","","","","","","sat_trial","","","","","","","","","","151","<div style='bottom:60%; right:20%; left:20%; position:fixed'><img src=https://realitybending.github.io/IllusionGameSelfAssociation/experiment/SelfAssociation/stimuli/square.png height=20%></img></div><div  style='font-size:500%; position:fixed; text-align: center; top:50%; bottom:50%; right:20%; left:20%'>+</div><div style = ""font-size:300%; text-align: center; position:fixed; top:70%; right:20%; left:20%""><b>Eminem</div>","e","","","","","","","square","18","match","match","true","","Stranger","1","","","","","","","","","","",""
"","html-keyboard-response","89","68149","0.0-22.0-2.17","Eminem","xxx","","","","","","","","","","","","sat_feedback","","","","","","","","","","null","<p style = 'font-size: 300%; color:green'>Correct!</p>","null","","","","","","","","","","","","","","","","","","","","","","","","",""
"","html-keyboard-response","90","68652","0.0-22.0-0.18","Eminem","xxx","","","","","","","","","","","","sat_fixationcross","","","","","","","","","","null","<div  style='font-size:500%; position:fixed; text-align: center; top:50%; bottom:50%; right:20%; left:20%'>+</div>","null","","","","","","500","","","","","","","","","","","","","","","","","","",""
"","html-keyboard-response","91","68921","0.0-22.0-1.18","Eminem","xxx","","","","","","","","","","","","sat_trial","","","","","","","","","","268","<div style='bottom:60%; right:20%; left:20%; position:fixed'><img src=https://realitybending.github.io/IllusionGameSelfAssociation/experiment/SelfAssociation/stimuli/triangle.png height=20%></img></div><div  style='font-size:500%; position:fixed; text-align: center; top:50%; bottom:50%; right:20%; left:20%'>+</div><div style = ""font-size:300%; text-align: center; position:fixed; top:70%; right:20%; left:20%""><b>You</div>","e","","","","","","","triangle","19","match","match","true","","Self","1","","","","","","","","","","",""
"","html-keyboard-response","92","69201","0.0-22.0-2.18","Eminem","xxx","","","","","","","","","","","","sat_feedback","","","","","","","","","","280","<p style = 'font-size: 300%; color:green'>Correct!</p>","e","","","","","","","","","","","","","","","","","","","","","","","","",""
"","html-keyboard-response","93","69703","0.0-22.0-0.19","Eminem","xxx","","","","","","","","","","","","sat_fixationcross","","","","","","","","","","null","<div  style='font-size:500%; position:fixed; text-align: center; top:50%; bottom:50%; right:20%; left:20%'>+</div>","null","","","","","","500","","","","","","","","","","","","","","","","","","",""
"","html-keyboard-response","94","69873","0.0-22.0-1.19","Eminem","xxx","","","","","","","","","","","","sat_trial","","","","","","","","","","169","<div style='bottom:60%; right:20%; left:20%; position:fixed'><img src=https://realitybending.github.io/IllusionGameSelfAssociation/experiment/SelfAssociation/stimuli/square.png height=20%></img></div><div  style='font-size:500%; position:fixed; text-align: center; top:50%; bottom:50%; right:20%; left:20%'>+</div><div style = ""font-size:300%; text-align: center; position:fixed; top:70%; right:20%; left:20%""><b>You</div>","e","","","","","","","square","20","match","mismatch","false","","Self","1","","","","","","","","","","",""
"","html-keyboard-response","95","70079","0.0-22.0-2.19","Eminem","xxx","","","","","","","","","","","","sat_feedback","","","","","","","","","","206","<p style = 'font-size: 300%; color:red'>Incorrect!</p>","e","","","","","","","","","","","","","","","","","","","","","","","","",""
"","html-keyboard-response","96","70581","0.0-22.0-0.20","Eminem","xxx","","","","","","","","","","","","sat_fixationcross","","","","","","","","","","null","<div  style='font-size:500%; position:fixed; text-align: center; top:50%; bottom:50%; right:20%; left:20%'>+</div>","null","","","","","","500","","","","","","","","","","","","","","","","","","",""
"","html-keyboard-response","97","70643","0.0-22.0-1.20","Eminem","xxx","","","","","","","","","","","","sat_trial","","","","","","","","","","62","<div style='bottom:60%; right:20%; left:20%; position:fixed'><img src=https://realitybending.github.io/IllusionGameSelfAssociation/experiment/SelfAssociation/stimuli/triangle.png height=20%></img></div><div  style='font-size:500%; position:fixed; text-align: center; top:50%; bottom:50%; right:20%; left:20%'>+</div><div style = ""font-size:300%; text-align: center; position:fixed; top:70%; right:20%; left:20%""><b>xxx</div>","e","","","","","","","triangle","21","match","mismatch","false","","Friend","1","","","","","","","","","","",""
"","html-keyboard-response","98","70841","0.0-22.0-2.20","Eminem","xxx","","","","","","","","","","","","sat_feedback","","","","","","","","","","197","<p style = 'font-size: 300%; color:red'>Incorrect!</p>","e","","","","","","","","","","","","","","","","","","","","","","","","",""
"","html-keyboard-response","99","71343","0.0-22.0-0.21","Eminem","xxx","","","","","","","","","","","","sat_fixationcross","","","","","","","","","","null","<div  style='font-size:500%; position:fixed; text-align: center; top:50%; bottom:50%; right:20%; left:20%'>+</div>","null","","","","","","500","","","","","","","","","","","","","","","","","","",""
"","html-keyboard-response","100","71433","0.0-22.0-1.21","Eminem","xxx","","","","","","","","","","","","sat_trial","","","","","","","","","","89","<div style='bottom:60%; right:20%; left:20%; position:fixed'><img src=https://realitybending.github.io/IllusionGameSelfAssociation/experiment/SelfAssociation/stimuli/circle.png height=20%></img></div><div  style='font-size:500%; position:fixed; text-align: center; top:50%; bottom:50%; right:20%; left:20%'>+</div><div style = ""font-size:300%; text-align: center; position:fixed; top:70%; right:20%; left:20%""><b>Eminem</div>","e","","","","","","","circle","22","match","mismatch","false","","Stranger","1","","","","","","","","","","",""
"","html-keyboard-response","101","71613","0.0-22.0-2.21","Eminem","xxx","","","","","","","","","","","","sat_feedback","","","","","","","","","","179","<p style = 'font-size: 300%; color:red'>Incorrect!</p>","e","","","","","","","","","","","","","","","","","","","","","","","","",""
"","html-keyboard-response","102","72114","0.0-22.0-0.22","Eminem","xxx","","","","","","","","","","","","sat_fixationcross","","","","","","","","","","null","<div  style='font-size:500%; position:fixed; text-align: center; top:50%; bottom:50%; right:20%; left:20%'>+</div>","null","","","","","","500","","","","","","","","","","","","","","","","","","",""
"","html-keyboard-response","103","72216","0.0-22.0-1.22","Eminem","xxx","","","","","","","","","","","","sat_trial","","","","","","","","","","102","<div style='bottom:60%; right:20%; left:20%; position:fixed'><img src=https://realitybending.github.io/IllusionGameSelfAssociation/experiment/SelfAssociation/stimuli/square.png height=20%></img></div><div  style='font-size:500%; position:fixed; text-align: center; top:50%; bottom:50%; right:20%; left:20%'>+</div><div style = ""font-size:300%; text-align: center; position:fixed; top:70%; right:20%; left:20%""><b>You</div>","e","","","","","","","square","23","match","mismatch","false","","Self","1","","","","","","","","","","",""
"","html-keyboard-response","104","72418","0.0-22.0-2.22","Eminem","xxx","","","","","","","","","","","","sat_feedback","","","","","","","","","","201","<p style = 'font-size: 300%; color:red'>Incorrect!</p>","e","","","","","","","","","","","","","","","","","","","","","","","","",""
"","html-keyboard-response","105","72919","0.0-22.0-0.23","Eminem","xxx","","","","","","","","","","","","sat_fixationcross","","","","","","","","","","null","<div  style='font-size:500%; position:fixed; text-align: center; top:50%; bottom:50%; right:20%; left:20%'>+</div>","null","","","","","","500","","","","","","","","","","","","","","","","","","",""
"","html-keyboard-response","106","73018","0.0-22.0-1.23","Eminem","xxx","","","","","","","","","","","","sat_trial","","","","","","","","","","98","<div style='bottom:60%; right:20%; left:20%; position:fixed'><img src=https://realitybending.github.io/IllusionGameSelfAssociation/experiment/SelfAssociation/stimuli/triangle.png height=20%></img></div><div  style='font-size:500%; position:fixed; text-align: center; top:50%; bottom:50%; right:20%; left:20%'>+</div><div style = ""font-size:300%; text-align: center; position:fixed; top:70%; right:20%; left:20%""><b>You</div>","e","","","","","","","triangle","24","match","match","true","","Self","1","","","","","","","","","","",""
"","html-keyboard-response","107","73229","0.0-22.0-2.23","Eminem","xxx","","","","","","","","","","","","sat_feedback","","","","","","","","","","210","<p style = 'font-size: 300%; color:green'>Correct!</p>","e","","","","","","","","","","","","","","","","","","","","","","","","",""
"","html-keyboard-response","108","73731","0.0-22.0-0.24","Eminem","xxx","","","","","","","","","","","","sat_fixationcross","","","","","","","","","","null","<div  style='font-size:500%; position:fixed; text-align: center; top:50%; bottom:50%; right:20%; left:20%'>+</div>","null","","","","","","500","","","","","","","","","","","","","","","","","","",""
"","html-keyboard-response","109","73814","0.0-22.0-1.24","Eminem","xxx","","","","","","","","","","","","sat_trial","","","","","","","","","","82","<div style='bottom:60%; right:20%; left:20%; position:fixed'><img src=https://realitybending.github.io/IllusionGameSelfAssociation/experiment/SelfAssociation/stimuli/circle.png height=20%></img></div><div  style='font-size:500%; position:fixed; text-align: center; top:50%; bottom:50%; right:20%; left:20%'>+</div><div style = ""font-size:300%; text-align: center; position:fixed; top:70%; right:20%; left:20%""><b>You</div>","e","","","","","","","circle","25","match","mismatch","false","","Self","1","","","","","","","","","","",""
"","html-keyboard-response","110","74009","0.0-22.0-2.24","Eminem","xxx","","","","","","","","","","","","sat_feedback","","","","","","","","","","195","<p style = 'font-size: 300%; color:red'>Incorrect!</p>","e","","","","","","","","","","","","","","","","","","","","","","","","",""
"","html-keyboard-response","111","74510","0.0-22.0-0.25","Eminem","xxx","","","","","","","","","","","","sat_fixationcross","","","","","","","","","","null","<div  style='font-size:500%; position:fixed; text-align: center; top:50%; bottom:50%; right:20%; left:20%'>+</div>","null","","","","","","500","","","","","","","","","","","","","","","","","","",""
"","html-keyboard-response","112","74599","0.0-22.0-1.25","Eminem","xxx","","","","","","","","","","","","sat_trial","","","","","","","","","","88","<div style='bottom:60%; right:20%; left:20%; position:fixed'><img src=https://realitybending.github.io/IllusionGameSelfAssociation/experiment/SelfAssociation/stimuli/triangle.png height=20%></img></div><div  style='font-size:500%; position:fixed; text-align: center; top:50%; bottom:50%; right:20%; left:20%'>+</div><div style = ""font-size:300%; text-align: center; position:fixed; top:70%; right:20%; left:20%""><b>Eminem</div>","e","","","","","","","triangle","26","match","mismatch","false","","Stranger","1","","","","","","","","","","",""
"","html-keyboard-response","113","74801","0.0-22.0-2.25","Eminem","xxx","","","","","","","","","","","","sat_feedback","","","","","","","","","","202","<p style = 'font-size: 300%; color:red'>Incorrect!</p>","e","","","","","","","","","","","","","","","","","","","","","","","","",""
"","html-keyboard-response","114","75303","0.0-22.0-0.26","Eminem","xxx","","","","","","","","","","","","sat_fixationcross","","","","","","","","","","null","<div  style='font-size:500%; position:fixed; text-align: center; top:50%; bottom:50%; right:20%; left:20%'>+</div>","null","","","","","","500","","","","","","","","","","","","","","","","","","",""
"","html-keyboard-response","115","75454","0.0-22.0-1.26","Eminem","xxx","","","","","","","","","","","","sat_trial","","","","","","","","","","151","<div style='bottom:60%; right:20%; left:20%; position:fixed'><img src=https://realitybending.github.io/IllusionGameSelfAssociation/experiment/SelfAssociation/stimuli/triangle.png height=20%></img></div><div  style='font-size:500%; position:fixed; text-align: center; top:50%; bottom:50%; right:20%; left:20%'>+</div><div style = ""font-size:300%; text-align: center; position:fixed; top:70%; right:20%; left:20%""><b>You</div>","e","","","","","","","triangle","27","match","match","true","","Self","1","","","","","","","","","","",""
"","html-keyboard-response","116","75752","0.0-22.0-2.26","Eminem","xxx","","","","","","","","","","","","sat_feedback","","","","","","","","","","298","<p style = 'font-size: 300%; color:green'>Correct!</p>","e","","","","","","","","","","","","","","","","","","","","","","","","",""
"","html-keyboard-response","117","76254","0.0-22.0-0.27","Eminem","xxx","","","","","","","","","","","","sat_fixationcross","","","","","","","","","","null","<div  style='font-size:500%; position:fixed; text-align: center; top:50%; bottom:50%; right:20%; left:20%'>+</div>","null","","","","","","500","","","","","","","","","","","","","","","","","","",""
"","html-keyboard-response","118","76460","0.0-22.0-1.27","Eminem","xxx","","","","","","","","","","","","sat_trial","","","","","","","","","","205","<div style='bottom:60%; right:20%; left:20%; position:fixed'><img src=https://realitybending.github.io/IllusionGameSelfAssociation/experiment/SelfAssociation/stimuli/circle.png height=20%></img></div><div  style='font-size:500%; position:fixed; text-align: center; top:50%; bottom:50%; right:20%; left:20%'>+</div><div style = ""font-size:300%; text-align: center; position:fixed; top:70%; right:20%; left:20%""><b>xxx</div>","e","","","","","","","circle","28","match","match","true","","Friend","1","","","","","","","","","","",""
"","html-keyboard-response","119","76780","0.0-22.0-2.27","Eminem","xxx","","","","","","","","","","","","sat_feedback","","","","","","","","","","319","<p style = 'font-size: 300%; color:green'>Correct!</p>","e","","","","","","","","","","","","","","","","","","","","","","","","",""
"","html-keyboard-response","120","77280","0.0-22.0-0.28","Eminem","xxx","","","","","","","","","","","","sat_fixationcross","","","","","","","","","","null","<div  style='font-size:500%; position:fixed; text-align: center; top:50%; bottom:50%; right:20%; left:20%'>+</div>","null","","","","","","500","","","","","","","","","","","","","","","","","","",""
"","html-keyboard-response","121","77478","0.0-22.0-1.28","Eminem","xxx","","","","","","","","","","","","sat_trial","","","","","","","","","","197","<div style='bottom:60%; right:20%; left:20%; position:fixed'><img src=https://realitybending.github.io/IllusionGameSelfAssociation/experiment/SelfAssociation/stimuli/square.png height=20%></img></div><div  style='font-size:500%; position:fixed; text-align: center; top:50%; bottom:50%; right:20%; left:20%'>+</div><div style = ""font-size:300%; text-align: center; position:fixed; top:70%; right:20%; left:20%""><b>You</div>","e","","","","","","","square","29","match","mismatch","false","","Self","1","","","","","","","","","","",""
"","html-keyboard-response","122","77695","0.0-22.0-2.28","Eminem","xxx","","","","","","","","","","","","sat_feedback","","","","","","","","","","216","<p style = 'font-size: 300%; color:red'>Incorrect!</p>","e","","","","","","","","","","","","","","","","","","","","","","","","",""
"","html-keyboard-response","123","78197","0.0-22.0-0.29","Eminem","xxx","","","","","","","","","","","","sat_fixationcross","","","","","","","","","","null","<div  style='font-size:500%; position:fixed; text-align: center; top:50%; bottom:50%; right:20%; left:20%'>+</div>","null","","","","","","500","","","","","","","","","","","","","","","","","","",""
"","html-keyboard-response","124","78567","0.0-22.0-1.29","Eminem","xxx","","","","","","","","","","","","sat_trial","","","","","","","","","","370","<div style='bottom:60%; right:20%; left:20%; position:fixed'><img src=https://realitybending.github.io/IllusionGameSelfAssociation/experiment/SelfAssociation/stimuli/circle.png height=20%></img></div><div  style='font-size:500%; position:fixed; text-align: center; top:50%; bottom:50%; right:20%; left:20%'>+</div><div style = ""font-size:300%; text-align: center; position:fixed; top:70%; right:20%; left:20%""><b>You</div>","i","","","","","","","circle","30","mismatch","mismatch","true","","Self","1","","","","","","","","","","",""
"","html-keyboard-response","125","79068","0.0-22.0-2.29","Eminem","xxx","","","","","","","","","","","","sat_feedback","","","","","","","","","","null","<p style = 'font-size: 300%; color:green'>Correct!</p>","null","","","","","","","","","","","","","","","","","","","","","","","","",""
"","html-keyboard-response","126","79570","0.0-22.0-0.30","Eminem","xxx","","","","","","","","","","","","sat_fixationcross","","","","","","","","","","null","<div  style='font-size:500%; position:fixed; text-align: center; top:50%; bottom:50%; right:20%; left:20%'>+</div>","null","","","","","","500","","","","","","","","","","","","","","","","","","",""
"","html-keyboard-response","127","79910","0.0-22.0-1.30","Eminem","xxx","","","","","","","","","","","","sat_trial","","","","","","","","","","339","<div style='bottom:60%; right:20%; left:20%; position:fixed'><img src=https://realitybending.github.io/IllusionGameSelfAssociation/experiment/SelfAssociation/stimuli/circle.png height=20%></img></div><div  style='font-size:500%; position:fixed; text-align: center; top:50%; bottom:50%; right:20%; left:20%'>+</div><div style = ""font-size:300%; text-align: center; position:fixed; top:70%; right:20%; left:20%""><b>You</div>","i","","","","","","","circle","31","mismatch","mismatch","true","","Self","1","","","","","","","","","","",""
"","html-keyboard-response","128","80412","0.0-22.0-2.30","Eminem","xxx","","","","","","","","","","","","sat_feedback","","","","","","","","","","null","<p style = 'font-size: 300%; color:green'>Correct!</p>","null","","","","","","","","","","","","","","","","","","","","","","","","",""
"","html-keyboard-response","129","80914","0.0-22.0-0.31","Eminem","xxx","","","","","","","","","","","","sat_fixationcross","","","","","","","","","","null","<div  style='font-size:500%; position:fixed; text-align: center; top:50%; bottom:50%; right:20%; left:20%'>+</div>","null","","","","","","500","","","","","","","","","","","","","","","","","","",""
"","html-keyboard-response","130","81386","0.0-22.0-1.31","Eminem","xxx","","","","","","","","","","","","sat_trial","","","","","","","","","","471","<div style='bottom:60%; right:20%; left:20%; position:fixed'><img src=https://realitybending.github.io/IllusionGameSelfAssociation/experiment/SelfAssociation/stimuli/triangle.png height=20%></img></div><div  style='font-size:500%; position:fixed; text-align: center; top:50%; bottom:50%; right:20%; left:20%'>+</div><div style = ""font-size:300%; text-align: center; position:fixed; top:70%; right:20%; left:20%""><b>Eminem</div>","i","","","","","","","triangle","32","mismatch","mismatch","true","","Stranger","1","","","","","","","","","","",""
"","html-keyboard-response","131","81597","0.0-22.0-2.31","Eminem","xxx","","","","","","","","","","","","sat_feedback","","","","","","","","","","210","<p style = 'font-size: 300%; color:green'>Correct!</p>","i","","","","","","","","","","","","","","","","","","","","","","","","",""
"","html-keyboard-response","132","82098","0.0-22.0-0.32","Eminem","xxx","","","","","","","","","","","","sat_fixationcross","","","","","","","","","","null","<div  style='font-size:500%; position:fixed; text-align: center; top:50%; bottom:50%; right:20%; left:20%'>+</div>","null","","","","","","500","","","","","","","","","","","","","","","","","","",""
"","html-keyboard-response","133","82383","0.0-22.0-1.32","Eminem","xxx","","","","","","","","","","","","sat_trial","","","","","","","","","","283","<div style='bottom:60%; right:20%; left:20%; position:fixed'><img src=https://realitybending.github.io/IllusionGameSelfAssociation/experiment/SelfAssociation/stimuli/square.png height=20%></img></div><div  style='font-size:500%; position:fixed; text-align: center; top:50%; bottom:50%; right:20%; left:20%'>+</div><div style = ""font-size:300%; text-align: center; position:fixed; top:70%; right:20%; left:20%""><b>xxx</div>","i","","","","","","","square","33","mismatch","mismatch","true","","Friend","1","","","","","","","","","","",""
"","html-keyboard-response","134","82884","0.0-22.0-2.32","Eminem","xxx","","","","","","","","","","","","sat_feedback","","","","","","","","","","null","<p style = 'font-size: 300%; color:green'>Correct!</p>","null","","","","","","","","","","","","","","","","","","","","","","","","",""
"","html-keyboard-response","135","83386","0.0-22.0-0.33","Eminem","xxx","","","","","","","","","","","","sat_fixationcross","","","","","","","","","","null","<div  style='font-size:500%; position:fixed; text-align: center; top:50%; bottom:50%; right:20%; left:20%'>+</div>","null","","","","","","500","","","","","","","","","","","","","","","","","","",""
"","html-keyboard-response","136","83512","0.0-22.0-1.33","Eminem","xxx","","","","","","","","","","","","sat_trial","","","","","","","","","","125","<div style='bottom:60%; right:20%; left:20%; position:fixed'><img src=https://realitybending.github.io/IllusionGameSelfAssociation/experiment/SelfAssociation/stimuli/square.png height=20%></img></div><div  style='font-size:500%; position:fixed; text-align: center; top:50%; bottom:50%; right:20%; left:20%'>+</div><div style = ""font-size:300%; text-align: center; position:fixed; top:70%; right:20%; left:20%""><b>You</div>","i","","","","","","","square","34","mismatch","mismatch","true","","Self","1","","","","","","","","","","",""
"","html-keyboard-response","137","84013","0.0-22.0-2.33","Eminem","xxx","","","","","","","","","","","","sat_feedback","","","","","","","","","","null","<p style = 'font-size: 300%; color:green'>Correct!</p>","null","","","","","","","","","","","","","","","","","","","","","","","","",""
"","html-keyboard-response","138","84516","0.0-22.0-0.34","Eminem","xxx","","","","","","","","","","","","sat_fixationcross","","","","","","","","","","null","<div  style='font-size:500%; position:fixed; text-align: center; top:50%; bottom:50%; right:20%; left:20%'>+</div>","null","","","","","","500","","","","","","","","","","","","","","","","","","",""
"","html-keyboard-response","139","85044","0.0-22.0-1.34","Eminem","xxx","","","","","","","","","","","","sat_trial","","","","","","","","","","527","<div style='bottom:60%; right:20%; left:20%; position:fixed'><img src=https://realitybending.github.io/IllusionGameSelfAssociation/experiment/SelfAssociation/stimuli/square.png height=20%></img></div><div  style='font-size:500%; position:fixed; text-align: center; top:50%; bottom:50%; right:20%; left:20%'>+</div><div style = ""font-size:300%; text-align: center; position:fixed; top:70%; right:20%; left:20%""><b>You</div>","i","","","","","","","square","35","mismatch","mismatch","true","","Self","1","","","","","","","","","","",""
"","html-keyboard-response","140","85545","0.0-22.0-2.34","Eminem","xxx","","","","","","","","","","","","sat_feedback","","","","","","","","","","null","<p style = 'font-size: 300%; color:green'>Correct!</p>","null","","","","","","","","","","","","","","","","","","","","","","","","",""
"","html-keyboard-response","141","86046","0.0-22.0-0.35","Eminem","xxx","","","","","","","","","","","","sat_fixationcross","","","","","","","","","","null","<div  style='font-size:500%; position:fixed; text-align: center; top:50%; bottom:50%; right:20%; left:20%'>+</div>","null","","","","","","500","","","","","","","","","","","","","","","","","","",""
"","html-keyboard-response","142","86127","0.0-22.0-1.35","Eminem","xxx","","","","","","","","","","","","sat_trial","","","","","","","","","","80","<div style='bottom:60%; right:20%; left:20%; position:fixed'><img src=https://realitybending.github.io/IllusionGameSelfAssociation/experiment/SelfAssociation/stimuli/square.png height=20%></img></div><div  style='font-size:500%; position:fixed; text-align: center; top:50%; bottom:50%; right:20%; left:20%'>+</div><div style = ""font-size:300%; text-align: center; position:fixed; top:70%; right:20%; left:20%""><b>xxx</div>","i","","","","","","","square","36","mismatch","mismatch","true","","Friend","1","","","","","","","","","","",""
"","html-keyboard-response","143","86628","0.0-22.0-2.35","Eminem","xxx","","","","","","","","","","","","sat_feedback","","","","","","","","","","null","<p style = 'font-size: 300%; color:green'>Correct!</p>","null","","","","","","","","","","","","","","","","","","","","","","","","",""
"","html-keyboard-response","144","87130","0.0-22.0-0.36","Eminem","xxx","","","","","","","","","","","","sat_fixationcross","","","","","","","","","","null","<div  style='font-size:500%; position:fixed; text-align: center; top:50%; bottom:50%; right:20%; left:20%'>+</div>","null","","","","","","500","","","","","","","","","","","","","","","","","","",""
"","html-keyboard-response","145","87576","0.0-22.0-1.36","Eminem","xxx","","","","","","","","","","","","sat_trial","","","","","","","","","","446","<div style='bottom:60%; right:20%; left:20%; position:fixed'><img src=https://realitybending.github.io/IllusionGameSelfAssociation/experiment/SelfAssociation/stimuli/circle.png height=20%></img></div><div  style='font-size:500%; position:fixed; text-align: center; top:50%; bottom:50%; right:20%; left:20%'>+</div><div style = ""font-size:300%; text-align: center; position:fixed; top:70%; right:20%; left:20%""><b>Eminem</div>","e","","","","","","","circle","37","match","mismatch","false","","Stranger","1","","","","","","","","","","",""
"","html-keyboard-response","146","88078","0.0-22.0-2.36","Eminem","xxx","","","","","","","","","","","","sat_feedback","","","","","","","","","","null","<p style = 'font-size: 300%; color:red'>Incorrect!</p>","null","","","","","","","","","","","","","","","","","","","","","","","","",""
"","html-keyboard-response","147","88578","0.0-22.0-0.37","Eminem","xxx","","","","","","","","","","","","sat_fixationcross","","","","","","","","","","null","<div  style='font-size:500%; position:fixed; text-align: center; top:50%; bottom:50%; right:20%; left:20%'>+</div>","null","","","","","","500","","","","","","","","","","","","","","","","","","",""
"","html-keyboard-response","148","88623","0.0-22.0-1.37","Eminem","xxx","","","","","","","","","","","","sat_trial","","","","","","","","","","43","<div style='bottom:60%; right:20%; left:20%; position:fixed'><img src=https://realitybending.github.io/IllusionGameSelfAssociation/experiment/SelfAssociation/stimuli/triangle.png height=20%></img></div><div  style='font-size:500%; position:fixed; text-align: center; top:50%; bottom:50%; right:20%; left:20%'>+</div><div style = ""font-size:300%; text-align: center; position:fixed; top:70%; right:20%; left:20%""><b>You</div>","e","","","","","","","triangle","38","match","match","true","","Self","1","","","","","","","","","","",""
"","html-keyboard-response","149","89125","0.0-22.0-2.37","Eminem","xxx","","","","","","","","","","","","sat_feedback","","","","","","","","","","null","<p style = 'font-size: 300%; color:green'>Correct!</p>","null","","","","","","","","","","","","","","","","","","","","","","","","",""
"","html-keyboard-response","150","89626","0.0-22.0-0.38","Eminem","xxx","","","","","","","","","","","","sat_fixationcross","","","","","","","","","","null","<div  style='font-size:500%; position:fixed; text-align: center; top:50%; bottom:50%; right:20%; left:20%'>+</div>","null","","","","","","500","","","","","","","","","","","","","","","","","","",""
"","html-keyboard-response","151","89805","0.0-22.0-1.38","Eminem","xxx","","","","","","","","","","","","sat_trial","","","","","","","","","","178","<div style='bottom:60%; right:20%; left:20%; position:fixed'><img src=https://realitybending.github.io/IllusionGameSelfAssociation/experiment/SelfAssociation/stimuli/triangle.png height=20%></img></div><div  style='font-size:500%; position:fixed; text-align: center; top:50%; bottom:50%; right:20%; left:20%'>+</div><div style = ""font-size:300%; text-align: center; position:fixed; top:70%; right:20%; left:20%""><b>xxx</div>","i","","","","","","","triangle","39","mismatch","mismatch","true","","Friend","1","","","","","","","","","","",""
"","html-keyboard-response","152","90306","0.0-22.0-2.38","Eminem","xxx","","","","","","","","","","","","sat_feedback","","","","","","","","","","null","<p style = 'font-size: 300%; color:green'>Correct!</p>","null","","","","","","","","","","","","","","","","","","","","","","","","",""
"","html-keyboard-response","153","90808","0.0-22.0-0.39","Eminem","xxx","","","","","","","","","","","","sat_fixationcross","","","","","","","","","","null","<div  style='font-size:500%; position:fixed; text-align: center; top:50%; bottom:50%; right:20%; left:20%'>+</div>","null","","","","","","500","","","","","","","","","","","","","","","","","","",""
"","html-keyboard-response","154","90850","0.0-22.0-1.39","Eminem","xxx","","","","","","","","","","","","sat_trial","","","","","","","","","","41","<div style='bottom:60%; right:20%; left:20%; position:fixed'><img src=https://realitybending.github.io/IllusionGameSelfAssociation/experiment/SelfAssociation/stimuli/square.png height=20%></img></div><div  style='font-size:500%; position:fixed; text-align: center; top:50%; bottom:50%; right:20%; left:20%'>+</div><div style = ""font-size:300%; text-align: center; position:fixed; top:70%; right:20%; left:20%""><b>You</div>","i","","","","","","","square","40","mismatch","mismatch","true","","Self","1","","","","","","","","","","",""
"","html-keyboard-response","155","91351","0.0-22.0-2.39","Eminem","xxx","","","","","","","","","","","","sat_feedback","","","","","","","","","","null","<p style = 'font-size: 300%; color:green'>Correct!</p>","null","","","","","","","","","","","","","","","","","","","","","","","","",""
"","html-keyboard-response","156","91853","0.0-22.0-0.40","Eminem","xxx","","","","","","","","","","","","sat_fixationcross","","","","","","","","","","null","<div  style='font-size:500%; position:fixed; text-align: center; top:50%; bottom:50%; right:20%; left:20%'>+</div>","null","","","","","","500","","","","","","","","","","","","","","","","","","",""
"","html-keyboard-response","157","92025","0.0-22.0-1.40","Eminem","xxx","","","","","","","","","","","","sat_trial","","","","","","","","","","170","<div style='bottom:60%; right:20%; left:20%; position:fixed'><img src=https://realitybending.github.io/IllusionGameSelfAssociation/experiment/SelfAssociation/stimuli/circle.png height=20%></img></div><div  style='font-size:500%; position:fixed; text-align: center; top:50%; bottom:50%; right:20%; left:20%'>+</div><div style = ""font-size:300%; text-align: center; position:fixed; top:70%; right:20%; left:20%""><b>You</div>","e","","","","","","","circle","41","match","mismatch","false","","Self","1","","","","","","","","","","",""
"","html-keyboard-response","158","92526","0.0-22.0-2.40","Eminem","xxx","","","","","","","","","","","","sat_feedback","","","","","","","","","","null","<p style = 'font-size: 300%; color:red'>Incorrect!</p>","null","","","","","","","","","","","","","","","","","","","","","","","","",""
"","html-keyboard-response","159","93028","0.0-22.0-0.41","Eminem","xxx","","","","","","","","","","","","sat_fixationcross","","","","","","","","","","null","<div  style='font-size:500%; position:fixed; text-align: center; top:50%; bottom:50%; right:20%; left:20%'>+</div>","null","","","","","","500","","","","","","","","","","","","","","","","","","",""
"","html-keyboard-response","160","93216","0.0-22.0-1.41","Eminem","xxx","","","","","","","","","","","","sat_trial","","","","","","","","","","187","<div style='bottom:60%; right:20%; left:20%; position:fixed'><img src=https://realitybending.github.io/IllusionGameSelfAssociation/experiment/SelfAssociation/stimuli/square.png height=20%></img></div><div  style='font-size:500%; position:fixed; text-align: center; top:50%; bottom:50%; right:20%; left:20%'>+</div><div style = ""font-size:300%; text-align: center; position:fixed; top:70%; right:20%; left:20%""><b>You</div>","i","","","","","","","square","42","mismatch","mismatch","true","","Self","1","","","","","","","","","","",""
"","html-keyboard-response","161","93410","0.0-22.0-2.41","Eminem","xxx","","","","","","","","","","","","sat_feedback","","","","","","","","","","194","<p style = 'font-size: 300%; color:green'>Correct!</p>","i","","","","","","","","","","","","","","","","","","","","","","","","",""
"","html-keyboard-response","162","93913","0.0-22.0-0.42","Eminem","xxx","","","","","","","","","","","","sat_fixationcross","","","","","","","","","","null","<div  style='font-size:500%; position:fixed; text-align: center; top:50%; bottom:50%; right:20%; left:20%'>+</div>","null","","","","","","500","","","","","","","","","","","","","","","","","","",""
"","html-keyboard-response","163","93966","0.0-22.0-1.42","Eminem","xxx","","","","","","","","","","","","sat_trial","","","","","","","","","","53","<div style='bottom:60%; right:20%; left:20%; position:fixed'><img src=https://realitybending.github.io/IllusionGameSelfAssociation/experiment/SelfAssociation/stimuli/circle.png height=20%></img></div><div  style='font-size:500%; position:fixed; text-align: center; top:50%; bottom:50%; right:20%; left:20%'>+</div><div style = ""font-size:300%; text-align: center; position:fixed; top:70%; right:20%; left:20%""><b>You</div>","i","","","","","","","circle","43","mismatch","mismatch","true","","Self","1","","","","","","","","","","",""
"","html-keyboard-response","164","94141","0.0-22.0-2.42","Eminem","xxx","","","","","","","","","","","","sat_feedback","","","","","","","","","","174","<p style = 'font-size: 300%; color:green'>Correct!</p>","i","","","","","","","","","","","","","","","","","","","","","","","","",""
"","html-keyboard-response","165","94643","0.0-22.0-0.43","Eminem","xxx","","","","","","","","","","","","sat_fixationcross","","","","","","","","","","null","<div  style='font-size:500%; position:fixed; text-align: center; top:50%; bottom:50%; right:20%; left:20%'>+</div>","null","","","","","","500","","","","","","","","","","","","","","","","","","",""
"","html-keyboard-response","166","94791","0.0-22.0-1.43","Eminem","xxx","","","","","","","","","","","","sat_trial","","","","","","","","","","148","<div style='bottom:60%; right:20%; left:20%; position:fixed'><img src=https://realitybending.github.io/IllusionGameSelfAssociation/experiment/SelfAssociation/stimuli/circle.png height=20%></img></div><div  style='font-size:500%; position:fixed; text-align: center; top:50%; bottom:50%; right:20%; left:20%'>+</div><div style = ""font-size:300%; text-align: center; position:fixed; top:70%; right:20%; left:20%""><b>You</div>","i","","","","","","","circle","44","mismatch","mismatch","true","","Self","1","","","","","","","","","","",""
"","html-keyboard-response","167","94959","0.0-22.0-2.43","Eminem","xxx","","","","","","","","","","","","sat_feedback","","","","","","","","","","168","<p style = 'font-size: 300%; color:green'>Correct!</p>","i","","","","","","","","","","","","","","","","","","","","","","","","",""
"","html-keyboard-response","168","95461","0.0-22.0-0.44","Eminem","xxx","","","","","","","","","","","","sat_fixationcross","","","","","","","","","","null","<div  style='font-size:500%; position:fixed; text-align: center; top:50%; bottom:50%; right:20%; left:20%'>+</div>","null","","","","","","500","","","","","","","","","","","","","","","","","","",""
"","html-keyboard-response","169","95478","0.0-22.0-1.44","Eminem","xxx","","","","","","","","","","","","sat_trial","","","","","","","","","","16","<div style='bottom:60%; right:20%; left:20%; position:fixed'><img src=https://realitybending.github.io/IllusionGameSelfAssociation/experiment/SelfAssociation/stimuli/square.png height=20%></img></div><div  style='font-size:500%; position:fixed; text-align: center; top:50%; bottom:50%; right:20%; left:20%'>+</div><div style = ""font-size:300%; text-align: center; position:fixed; top:70%; right:20%; left:20%""><b>You</div>","i","","","","","","","square","45","mismatch","mismatch","true","","Self","1","","","","","","","","","","",""
"","html-keyboard-response","170","95728","0.0-22.0-2.44","Eminem","xxx","","","","","","","","","","","","sat_feedback","","","","","","","","","","250","<p style = 'font-size: 300%; color:green'>Correct!</p>","i","","","","","","","","","","","","","","","","","","","","","","","","",""
"","html-keyboard-response","171","96229","0.0-22.0-0.45","Eminem","xxx","","","","","","","","","","","","sat_fixationcross","","","","","","","","","","null","<div  style='font-size:500%; position:fixed; text-align: center; top:50%; bottom:50%; right:20%; left:20%'>+</div>","null","","","","","","500","","","","","","","","","","","","","","","","","","",""
"","html-keyboard-response","172","96258","0.0-22.0-1.45","Eminem","xxx","","","","","","","","","","","","sat_trial","","","","","","","","","","28","<div style='bottom:60%; right:20%; left:20%; position:fixed'><img src=https://realitybending.github.io/IllusionGameSelfAssociation/experiment/SelfAssociation/stimuli/circle.png height=20%></img></div><div  style='font-size:500%; position:fixed; text-align: center; top:50%; bottom:50%; right:20%; left:20%'>+</div><div style = ""font-size:300%; text-align: center; position:fixed; top:70%; right:20%; left:20%""><b>xxx</div>","i","","","","","","","circle","46","mismatch","match","false","","Friend","1","","","","","","","","","","",""
"","html-keyboard-response","173","96435","0.0-22.0-2.45","Eminem","xxx","","","","","","","","","","","","sat_feedback","","","","","","","","","","177","<p style = 'font-size: 300%; color:red'>Incorrect!</p>","i","","","","","","","","","","","","","","","","","","","","","","","","",""
"","html-keyboard-response","174","96936","0.0-22.0-0.46","Eminem","xxx","","","","","","","","","","","","sat_fixationcross","","","","","","","","","","null","<div  style='font-size:500%; position:fixed; text-align: center; top:50%; bottom:50%; right:20%; left:20%'>+</div>","null","","","","","","500","","","","","","","","","","","","","","","","","","",""
"","html-keyboard-response","175","96968","0.0-22.0-1.46","Eminem","xxx","","","","","","","","","","","","sat_trial","","","","","","","","","","31","<div style='bottom:60%; right:20%; left:20%; position:fixed'><img src=https://realitybending.github.io/IllusionGameSelfAssociation/experiment/SelfAssociation/stimuli/square.png height=20%></img></div><div  style='font-size:500%; position:fixed; text-align: center; top:50%; bottom:50%; right:20%; left:20%'>+</div><div style = ""font-size:300%; text-align: center; position:fixed; top:70%; right:20%; left:20%""><b>xxx</div>","i","","","","","","","square","47","mismatch","mismatch","true","","Friend","1","","","","","","","","","","",""
"","html-keyboard-response","176","97137","0.0-22.0-2.46","Eminem","xxx","","","","","","","","","","","","sat_feedback","","","","","","","","","","168","<p style = 'font-size: 300%; color:green'>Correct!</p>","i","","","","","","","","","","","","","","","","","","","","","","","","",""
"","html-keyboard-response","177","97639","0.0-22.0-0.47","Eminem","xxx","","","","","","","","","","","","sat_fixationcross","","","","","","","","","","null","<div  style='font-size:500%; position:fixed; text-align: center; top:50%; bottom:50%; right:20%; left:20%'>+</div>","null","","","","","","500","","","","","","","","","","","","","","","","","","",""
"","html-keyboard-response","178","97660","0.0-22.0-1.47","Eminem","xxx","","","","","","","","","","","","sat_trial","","","","","","","","","","20","<div style='bottom:60%; right:20%; left:20%; position:fixed'><img src=https://realitybending.github.io/IllusionGameSelfAssociation/experiment/SelfAssociation/stimuli/circle.png height=20%></img></div><div  style='font-size:500%; position:fixed; text-align: center; top:50%; bottom:50%; right:20%; left:20%'>+</div><div style = ""font-size:300%; text-align: center; position:fixed; top:70%; right:20%; left:20%""><b>Eminem</div>","i","","","","","","","circle","48","mismatch","mismatch","true","","Stranger","1","","","","","","","","","","",""
"","html-keyboard-response","179","97839","0.0-22.0-2.47","Eminem","xxx","","","","","","","","","","","","sat_feedback","","","","","","","","","","178","<p style = 'font-size: 300%; color:green'>Correct!</p>","i","","","","","","","","","","","","","","","","","","","","","","","","",""
"","html-keyboard-response","180","98341","0.0-22.0-0.48","Eminem","xxx","","","","","","","","","","","","sat_fixationcross","","","","","","","","","","null","<div  style='font-size:500%; position:fixed; text-align: center; top:50%; bottom:50%; right:20%; left:20%'>+</div>","null","","","","","","500","","","","","","","","","","","","","","","","","","",""
"","html-keyboard-response","181","98380","0.0-22.0-1.48","Eminem","xxx","","","","","","","","","","","","sat_trial","","","","","","","","","","38","<div style='bottom:60%; right:20%; left:20%; position:fixed'><img src=https://realitybending.github.io/IllusionGameSelfAssociation/experiment/SelfAssociation/stimuli/square.png height=20%></img></div><div  style='font-size:500%; position:fixed; text-align: center; top:50%; bottom:50%; right:20%; left:20%'>+</div><div style = ""font-size:300%; text-align: center; position:fixed; top:70%; right:20%; left:20%""><b>xxx</div>","i","","","","","","","square","49","mismatch","mismatch","true","","Friend","1","","","","","","","","","","",""
"","html-keyboard-response","182","98554","0.0-22.0-2.48","Eminem","xxx","","","","","","","","","","","","sat_feedback","","","","","","","","","","173","<p style = 'font-size: 300%; color:green'>Correct!</p>","i","","","","","","","","","","","","","","","","","","","","","","","","",""
"","html-keyboard-response","183","99057","0.0-22.0-0.49","Eminem","xxx","","","","","","","","","","","","sat_fixationcross","","","","","","","","","","null","<div  style='font-size:500%; position:fixed; text-align: center; top:50%; bottom:50%; right:20%; left:20%'>+</div>","null","","","","","","500","","","","","","","","","","","","","","","","","","",""
"","html-keyboard-response","184","99083","0.0-22.0-1.49","Eminem","xxx","","","","","","","","","","","","sat_trial","","","","","","","","","","26","<div style='bottom:60%; right:20%; left:20%; position:fixed'><img src=https://realitybending.github.io/IllusionGameSelfAssociation/experiment/SelfAssociation/stimuli/triangle.png height=20%></img></div><div  style='font-size:500%; position:fixed; text-align: center; top:50%; bottom:50%; right:20%; left:20%'>+</div><div style = ""font-size:300%; text-align: center; position:fixed; top:70%; right:20%; left:20%""><b>xxx</div>","i","","","","","","","triangle","50","mismatch","mismatch","true","","Friend","1","","","","","","","","","","",""
"","html-keyboard-response","185","99263","0.0-22.0-2.49","Eminem","xxx","","","","","","","","","","","","sat_feedback","","","","","","","","","","179","<p style = 'font-size: 300%; color:green'>Correct!</p>","i","","","","","","","","","","","","","","","","","","","","","","","","",""
"","html-keyboard-response","186","99765","0.0-22.0-0.50","Eminem","xxx","","","","","","","","","","","","sat_fixationcross","","","","","","","","","","null","<div  style='font-size:500%; position:fixed; text-align: center; top:50%; bottom:50%; right:20%; left:20%'>+</div>","null","","","","","","500","","","","","","","","","","","","","","","","","","",""
"","html-keyboard-response","187","99796","0.0-22.0-1.50","Eminem","xxx","","","","","","","","","","","","sat_trial","","","","","","","","","","30","<div style='bottom:60%; right:20%; left:20%; position:fixed'><img src=https://realitybending.github.io/IllusionGameSelfAssociation/experiment/SelfAssociation/stimuli/square.png height=20%></img></div><div  style='font-size:500%; position:fixed; text-align: center; top:50%; bottom:50%; right:20%; left:20%'>+</div><div style = ""font-size:300%; text-align: center; position:fixed; top:70%; right:20%; left:20%""><b>Eminem</div>","i","","","","","","","square","51","mismatch","match","false","","Stranger","1","","","","","","","","","","",""
"","html-keyboard-response","188","99971","0.0-22.0-2.50","Eminem","xxx","","","","","","","","","","","","sat_feedback","","","","","","","","","","174","<p style = 'font-size: 300%; color:red'>Incorrect!</p>","i","","","","","","","","","","","","","","","","","","","","","","","","",""
"","html-keyboard-response","189","100474","0.0-22.0-0.51","Eminem","xxx","","","","","","","","","","","","sat_fixationcross","","","","","","","","","","null","<div  style='font-size:500%; position:fixed; text-align: center; top:50%; bottom:50%; right:20%; left:20%'>+</div>","null","","","","","","500","","","","","","","","","","","","","","","","","","",""
"","html-keyboard-response","190","100500","0.0-22.0-1.51","Eminem","xxx","","","","","","","","","","","","sat_trial","","","","","","","","","","26","<div style='bottom:60%; right:20%; left:20%; position:fixed'><img src=https://realitybending.github.io/IllusionGameSelfAssociation/experiment/SelfAssociation/stimuli/circle.png height=20%></img></div><div  style='font-size:500%; position:fixed; text-align: center; top:50%; bottom:50%; right:20%; left:20%'>+</div><div style = ""font-size:300%; text-align: center; position:fixed; top:70%; right:20%; left:20%""><b>You</div>","i","","","","","","","circle","52","mismatch","mismatch","true","","Self","1","","","","","","","","","","",""
"","html-keyboard-response","191","100674","0.0-22.0-2.51","Eminem","xxx","","","","","","","","","","","","sat_feedback","","","","","","","","","","173","<p style = 'font-size: 300%; color:green'>Correct!</p>","i","","","","","","","","","","","","","","","","","","","","","","","","",""
"","html-keyboard-response","192","101176","0.0-22.0-0.52","Eminem","xxx","","","","","","","","","","","","sat_fixationcross","","","","","","","","","","null","<div  style='font-size:500%; position:fixed; text-align: center; top:50%; bottom:50%; right:20%; left:20%'>+</div>","null","","","","","","500","","","","","","","","","","","","","","","","","","",""
"","html-keyboard-response","193","101208","0.0-22.0-1.52","Eminem","xxx","","","","","","","","","","","","sat_trial","","","","","","","","","","32","<div style='bottom:60%; right:20%; left:20%; position:fixed'><img src=https://realitybending.github.io/IllusionGameSelfAssociation/experiment/SelfAssociation/stimuli/circle.png height=20%></img></div><div  style='font-size:500%; position:fixed; text-align: center; top:50%; bottom:50%; right:20%; left:20%'>+</div><div style = ""font-size:300%; text-align: center; position:fixed; top:70%; right:20%; left:20%""><b>xxx</div>","i","","","","","","","circle","53","mismatch","match","false","","Friend","1","","","","","","","","","","",""
"","html-keyboard-response","194","101382","0.0-22.0-2.52","Eminem","xxx","","","","","","","","","","","","sat_feedback","","","","","","","","","","173","<p style = 'font-size: 300%; color:red'>Incorrect!</p>","i","","","","","","","","","","","","","","","","","","","","","","","","",""
"","html-keyboard-response","195","101884","0.0-22.0-0.53","Eminem","xxx","","","","","","","","","","","","sat_fixationcross","","","","","","","","","","null","<div  style='font-size:500%; position:fixed; text-align: center; top:50%; bottom:50%; right:20%; left:20%'>+</div>","null","","","","","","500","","","","","","","","","","","","","","","","","","",""
"","html-keyboard-response","196","101911","0.0-22.0-1.53","Eminem","xxx","","","","","","","","","","","","sat_trial","","","","","","","","","","26","<div style='bottom:60%; right:20%; left:20%; position:fixed'><img src=https://realitybending.github.io/IllusionGameSelfAssociation/experiment/SelfAssociation/stimuli/triangle.png height=20%></img></div><div  style='font-size:500%; position:fixed; text-align: center; top:50%; bottom:50%; right:20%; left:20%'>+</div><div style = ""font-size:300%; text-align: center; position:fixed; top:70%; right:20%; left:20%""><b>Eminem</div>","i","","","","","","","triangle","54","mismatch","mismatch","true","","Stranger","1","","","","","","","","","","",""
"","html-keyboard-response","197","102094","0.0-22.0-2.53","Eminem","xxx","","","","","","","","","","","","sat_feedback","","","","","","","","","","182","<p style = 'font-size: 300%; color:green'>Correct!</p>","i","","","","","","","","","","","","","","","","","","","","","","","","",""
"","html-keyboard-response","198","102596","0.0-22.0-0.54","Eminem","xxx","","","","","","","","","","","","sat_fixationcross","","","","","","","","","","null","<div  style='font-size:500%; position:fixed; text-align: center; top:50%; bottom:50%; right:20%; left:20%'>+</div>","null","","","","","","500","","","","","","","","","","","","","","","","","","",""
"","html-keyboard-response","199","102633","0.0-22.0-1.54","Eminem","xxx","","","","","","","","","","","","sat_trial","","","","","","","","","","36","<div style='bottom:60%; right:20%; left:20%; position:fixed'><img src=https://realitybending.github.io/IllusionGameSelfAssociation/experiment/SelfAssociation/stimuli/circle.png height=20%></img></div><div  style='font-size:500%; position:fixed; text-align: center; top:50%; bottom:50%; right:20%; left:20%'>+</div><div style = ""font-size:300%; text-align: center; position:fixed; top:70%; right:20%; left:20%""><b>You</div>","i","","","","","","","circle","55","mismatch","mismatch","true","","Self","1","","","","","","","","","","",""
"","html-keyboard-response","200","102806","0.0-22.0-2.54","Eminem","xxx","","","","","","","","","","","","sat_feedback","","","","","","","","","","172","<p style = 'font-size: 300%; color:green'>Correct!</p>","i","","","","","","","","","","","","","","","","","","","","","","","","",""
"","html-keyboard-response","201","103307","0.0-22.0-0.55","Eminem","xxx","","","","","","","","","","","","sat_fixationcross","","","","","","","","","","null","<div  style='font-size:500%; position:fixed; text-align: center; top:50%; bottom:50%; right:20%; left:20%'>+</div>","null","","","","","","500","","","","","","","","","","","","","","","","","","",""
"","html-keyboard-response","202","103358","0.0-22.0-1.55","Eminem","xxx","","","","","","","","","","","","sat_trial","","","","","","","","","","50","<div style='bottom:60%; right:20%; left:20%; position:fixed'><img src=https://realitybending.github.io/IllusionGameSelfAssociation/experiment/SelfAssociation/stimuli/triangle.png height=20%></img></div><div  style='font-size:500%; position:fixed; text-align: center; top:50%; bottom:50%; right:20%; left:20%'>+</div><div style = ""font-size:300%; text-align: center; position:fixed; top:70%; right:20%; left:20%""><b>xxx</div>","i","","","","","","","triangle","56","mismatch","mismatch","true","","Friend","1","","","","","","","","","","",""
"","html-keyboard-response","203","103557","0.0-22.0-2.55","Eminem","xxx","","","","","","","","","","","","sat_feedback","","","","","","","","","","199","<p style = 'font-size: 300%; color:green'>Correct!</p>","i","","","","","","","","","","","","","","","","","","","","","","","","",""
"","html-keyboard-response","204","104059","0.0-22.0-0.56","Eminem","xxx","","","","","","","","","","","","sat_fixationcross","","","","","","","","","","null","<div  style='font-size:500%; position:fixed; text-align: center; top:50%; bottom:50%; right:20%; left:20%'>+</div>","null","","","","","","500","","","","","","","","","","","","","","","","","","",""
"","html-keyboard-response","205","104118","0.0-22.0-1.56","Eminem","xxx","","","","","","","","","","","","sat_trial","","","","","","","","","","58","<div style='bottom:60%; right:20%; left:20%; position:fixed'><img src=https://realitybending.github.io/IllusionGameSelfAssociation/experiment/SelfAssociation/stimuli/square.png height=20%></img></div><div  style='font-size:500%; position:fixed; text-align: center; top:50%; bottom:50%; right:20%; left:20%'>+</div><div style = ""font-size:300%; text-align: center; position:fixed; top:70%; right:20%; left:20%""><b>xxx</div>","i","","","","","","","square","57","mismatch","mismatch","true","","Friend","1","","","","","","","","","","",""
"","html-keyboard-response","206","104306","0.0-22.0-2.56","Eminem","xxx","","","","","","","","","","","","sat_feedback","","","","","","","","","","188","<p style = 'font-size: 300%; color:green'>Correct!</p>","i","","","","","","","","","","","","","","","","","","","","","","","","",""
"","html-keyboard-response","207","104808","0.0-22.0-0.57","Eminem","xxx","","","","","","","","","","","","sat_fixationcross","","","","","","","","","","null","<div  style='font-size:500%; position:fixed; text-align: center; top:50%; bottom:50%; right:20%; left:20%'>+</div>","null","","","","","","500","","","","","","","","","","","","","","","","","","",""
"","html-keyboard-response","208","104961","0.0-22.0-1.57","Eminem","xxx","","","","","","","","","","","","sat_trial","","","","","","","","","","152","<div style='bottom:60%; right:20%; left:20%; position:fixed'><img src=https://realitybending.github.io/IllusionGameSelfAssociation/experiment/SelfAssociation/stimuli/circle.png height=20%></img></div><div  style='font-size:500%; position:fixed; text-align: center; top:50%; bottom:50%; right:20%; left:20%'>+</div><div style = ""font-size:300%; text-align: center; position:fixed; top:70%; right:20%; left:20%""><b>xxx</div>","i","","","","","","","circle","58","mismatch","match","false","","Friend","1","","","","","","","","","","",""
"","html-keyboard-response","209","105413","0.0-22.0-2.57","Eminem","xxx","","","","","","","","","","","","sat_feedback","","","","","","","","","","452","<p style = 'font-size: 300%; color:red'>Incorrect!</p>","i","","","","","","","","","","","","","","","","","","","","","","","","",""
"","html-keyboard-response","210","105915","0.0-22.0-0.58","Eminem","xxx","","","","","","","","","","","","sat_fixationcross","","","","","","","","","","null","<div  style='font-size:500%; position:fixed; text-align: center; top:50%; bottom:50%; right:20%; left:20%'>+</div>","null","","","","","","500","","","","","","","","","","","","","","","","","","",""
"","html-keyboard-response","211","106031","0.0-22.0-1.58","Eminem","xxx","","","","","","","","","","","","sat_trial","","","","","","","","","","115","<div style='bottom:60%; right:20%; left:20%; position:fixed'><img src=https://realitybending.github.io/IllusionGameSelfAssociation/experiment/SelfAssociation/stimuli/triangle.png height=20%></img></div><div  style='font-size:500%; position:fixed; text-align: center; top:50%; bottom:50%; right:20%; left:20%'>+</div><div style = ""font-size:300%; text-align: center; position:fixed; top:70%; right:20%; left:20%""><b>xxx</div>","i","","","","","","","triangle","59","mismatch","mismatch","true","","Friend","1","","","","","","","","","","",""
"","html-keyboard-response","212","106336","0.0-22.0-2.58","Eminem","xxx","","","","","","","","","","","","sat_feedback","","","","","","","","","","305","<p style = 'font-size: 300%; color:green'>Correct!</p>","i","","","","","","","","","","","","","","","","","","","","","","","","",""
"","html-keyboard-response","213","106837","0.0-22.0-0.59","Eminem","xxx","","","","","","","","","","","","sat_fixationcross","","","","","","","","","","null","<div  style='font-size:500%; position:fixed; text-align: center; top:50%; bottom:50%; right:20%; left:20%'>+</div>","null","","","","","","500","","","","","","","","","","","","","","","","","","",""
"","html-keyboard-response","214","106880","0.0-22.0-1.59","Eminem","xxx","","","","","","","","","","","","sat_trial","","","","","","","","","","42","<div style='bottom:60%; right:20%; left:20%; position:fixed'><img src=https://realitybending.github.io/IllusionGameSelfAssociation/experiment/SelfAssociation/stimuli/square.png height=20%></img></div><div  style='font-size:500%; position:fixed; text-align: center; top:50%; bottom:50%; right:20%; left:20%'>+</div><div style = ""font-size:300%; text-align: center; position:fixed; top:70%; right:20%; left:20%""><b>xxx</div>","i","","","","","","","square","60","mismatch","mismatch","true","","Friend","1","","","","","","","","","","",""
"","html-keyboard-response","215","107089","0.0-22.0-2.59","Eminem","xxx","","","","","","","","","","","","sat_feedback","","","","","","","","","","209","<p style = 'font-size: 300%; color:green'>Correct!</p>","i","","","","","","","","","","","","","","","","","","","","","","","","",""
