"success","screen","group","trial_type","trial_index","time_elapsed","internal_node_id","label_stranger","label_friend","width","height","webaudio","browser","browser_version","mobile","os","fullscreen","vsync_rate","webcam","microphone","date","time","screen_height","screen_width","researcher","sona_id","prolific_id","study_id","session_id","rt","stimulus","response","question_order","timeout","failed_images","failed_audio","failed_video","trial_duration","shape","trial_number","answer","answer_correct","correct","condition","label_condition","block_number","file","block","correct_response","Illusion_Type","Illusion_Strength","Illusion_Difference","isi","fixation_cross","type","illusion_strength","illusion_difference"
"true","fullscreen","control_T0","fullscreen","0","16669","0.0-0.0","Beyonce","Gloria","","","","","","","","","","","","","","","","","","","","","","","","","","","","","","","","","","","","","","","","","","","","","","","",""
"","browser_info","","browser-check","1","17671","0.0-1.0","Beyonce","Gloria","1440","789","true","chrome","122.0.0","false","Mac OS","true","60.2","false","true","18/03/2024","08:01:09","789","1440","","","609a5687957e53ed0f27f4e9","65e72b0a27a1d8bd15a851fe","65f7e688d08c9c947938c4b8","","","","","","","","","","","","","","","","","","","","","","","","","","","",""
"","consent","","html-button-response","2","45788","0.0-2.0","Beyonce","Gloria","","","","","","","","","","","","","","","","","","","","","28113","<img src='https://u-paris.fr/wp-content/uploads/2022/03/Universite_Paris-Cite-logo.jpeg' width='300px' align='right'/><br><br><br><br><br><h1>Consent form</h1><p align='left'>In this study, you will have to complete two questionnaires and two tasks.</p><p align='left'>The questionnaires and tasks must be completed alone. <b>Your participation is confidential and your answers will be anonymized.</b> We do not collect your IP address or any other identifying information.</p><p align='left'>Your data are very valuable for us. In participating, you will contribute to scientific progress. <b>In participating, you accept to follow the instructions and to supply honest answers.</b> If you don't want to participate, you can simply close your browser.</p><p align='left'><br><sub><sup>If you have any question regarding the study, you can email Baptiste Fauvel (baptiste.fauvel@u-paris.fr). This study has been reviewed and approved by the ethical committee of the University of Paris .</sup></sub></p>","0","","","","","","","","","","","","","","","","","","","","","","","","",""
"","demographics_1","","survey-multi-choice","3","62174","0.0-3.0-0.0","Beyonce","Gloria","","","","","","","","","","","","","","","","","","","","","16381","","{""sex"":""Female"",""student"":""Yes"",""education"":""University (bachelor) <sub><sup>or equivalent</sup></sub>"",""language"":""fluent""}","[0,1,2,3]","","","","","","","","","","","","","","","","","","","","","","","",""
"","demographics_2","","survey-text","4","71688","0.0-3.0-1.0","Beyonce","Gloria","","","","","","","","","","","","","","","","","","","","","9506","","{""age"":""23"",""country"":""Poland""}","","","","","","","","","","","","","","","","","","","","","","","","",""
"","","","html-button-response","5","79821","0.0-4.0","Beyonce","Gloria","","","","","","","","","","","","","","","","","","","","","8132","<p style=""font-size:18px; color:black;"">Have you <b>ever</b> been diagnosed with any of the following pathologies ?</p>","1","","","","","","","","","","","","","","","","","","","","","","","","",""
"","","","html-button-response","6","85172","0.0-6.0","Beyonce","Gloria","","","","","","","","","","","","","","","","","","","","","5349","<p style=""font-size:18px; color:black;"">Are you <b>currently</b> diagnosed with any of the following pathologies ?</p>","1","","","","","","","","","","","","","","","","","","","","","","","","",""
"","","","html-button-response","7","88558","0.0-8.0","Beyonce","Gloria","","","","","","","","","","","","","","","","","","","","","3385","<p style=""font-size:18px; color:black;"">Do you meditate regularly? E.g. at least once a week?</p>","1","","","","","","","","","","","","","","","","","","","","","","","","",""
"","","","html-button-response","8","91306","0.0-10.0","Beyonce","Gloria","","","","","","","","","","","","","","","","","","","","","2746","<p style=""font-size:18px; color:black;"">Have you taken a psychedelic drug in the last 6 months? (E.g. LSD, psilocybin mushrooms, ayahuasca)</p>","1","","","","","","","","","","","","","","","","","","","","","","","","",""
"","","","survey-multi-choice","9","96373","0.0-11.0","Beyonce","Gloria","","","","","","","","","","","","","","","","","","","","","5064","","{""psych_freq_english"":""Never""}","[0]","","","","","","","","","","","","","","","","","","","","","","","",""
"true","","","preload","10","96723","0.0-12.0","Beyonce","Gloria","","","","","","","","","","","","","","","","","","","","","","","","","false","[]","[]","[]","","","","","","","","","","","","","","","","","","","",""
"","SAT_instructions_general","","html-button-response","11","114678","0.0-13.0","Beyonce","Gloria","","","","","","","","","","","","","","","","","","","","","17953","<h1>Shape-Label Association Game</h1><p>In this task, you will be shown some <b>shapes</b> that will be assigned to a <b>label</b> (You, Your Best Friend and a Stranger).</p><p>To personalize this game to your own experience, you will first select who you want the friend and the stranger to be.</p>","0","","","","","","","","","","","","","","","","","","","","","","","","",""
"","SAT_strangerlabel","","survey-multi-choice","12","125130","0.0-14.0","Beyonce","Gloria","","","","","","","","","","","","","","","","","","","","","10450","","{""label_stranger"":""Beyonce""}","[0]","","","","","","","","","","","","","","","","","","","","","","","",""
"","SAT_friendlabel","","survey-text","13","137198","0.0-15.0","Beyonce","Gloria","","","","","","","","","","","","","","","","","","","","","12062","","{""label_friend"":""Gloria""}","","","","","","","","","","","","","","","","","","","","","","","","",""
"","SAT_instructions_practice","","html-button-response","14","192854","0.0-16.0","Beyonce","Gloria","","","","","","","","","","","","","","","","","","","","","55653","<h1>Practice</h1><p>Each label (i.e., You, Best Friend, Stranger) will be assigned to a specific shape (circle, square or triangle)</p><p>During the practice phase, you will be presented with one of the shapes above a fixation cross, together with the three labels below the fixation cross.</p><p>Your task is to select the label that corresponds with the presented shape as quickly and accurately as possible</p><p>If the correct label is on the <b>left</b>, press <b>'v'</b>.</p><p>If the correct label is in the <b>middle</b>, press <b>'b'</b>.</p><p>If the correct label is on the <b>right</b>, press <b>'n'</b>.</p><br>","0","","","","","","","","","","","","","","","","","","","","","","","","",""
"","SAT_assignmentscreen","","html-button-response","15","212468","0.0-17.0","Beyonce","Gloria","","","","","","","","","","","","","","","","","","","","","19612","<h1>Instructions</h1><div id ='align-middle'><b>You</b> will be represented by a  <b>square</b>  <img src= https://realitybending.github.io/IllusionGameSelfAssociation/experiment/SelfAssociation/stimuli/square.png height=40></img></div><br><div id ='align-middle'><b>Beyonce</b> will be represented by a  <b>circle</b>  <img src= https://realitybending.github.io/IllusionGameSelfAssociation/experiment/SelfAssociation/stimuli/circle.png height=40></img></div><br><div id = 'align-middle'><b>Gloria</b> will be represented by a  <b>triangle</b>  <img src= https://realitybending.github.io/IllusionGameSelfAssociation/experiment/SelfAssociation/stimuli/triangle.png height=40></img></div><br>","0","","","","","","","","","","","","","","","","","","","","","","","","",""
"","sat_fixationcross","","html-keyboard-response","16","212970","0.0-18.0-0.0","Beyonce","Gloria","","","","","","","","","","","","","","","","","","","","","null","<div  style='font-size:500%; position:fixed; text-align: center; top:50%; bottom:50%; right:20%; left:20%'>+</div>","null","","","","","","500","","","","","","","","","","","","","","","","","","",""
"","sat_practicetrial","","html-keyboard-response","17","218585","0.0-18.0-1.0","Beyonce","Gloria","","","","","","","","","","","","","","","","","","","","","5611","<div style='bottom:60%; right:20%; left:20%; position:fixed'><img src=https://realitybending.github.io/IllusionGameSelfAssociation/experiment/SelfAssociation/stimuli/circle.png height=20%></img></div><div  style='font-size:500%; position:fixed; text-align: center; top:50%; bottom:50%; right:20%; left:20%'>+</div><div style = ""font-size:300%; text-align: center; position:fixed; top:70%; left:20%""><b>You</b></br></br></br></br>v</div><div style = ""font-size:300%; text-align: center; position:fixed; top:70%; right:20%; left:20%""><b>Beyonce</b></br></br></br></br>b</div><div style = ""font-size:300%; text-align: center; position:fixed; top:70%; right:20%""><b>Gloria</b></br></br></br></br>n</div>","b","","","","","","","circle","1","Beyonce","Beyonce","true","Stranger","","","","","","","","","","","","",""
"","sat_feedback","","html-keyboard-response","18","219087","0.0-18.0-2.0","Beyonce","Gloria","","","","","","","","","","","","","","","","","","","","","null","<p style = 'font-size: 300%; color:green'>Correct!</p>","null","","","","","","","","","","","","","","","","","","","","","","","","",""
"","sat_fixationcross","","html-keyboard-response","19","219589","0.0-18.0-0.1","Beyonce","Gloria","","","","","","","","","","","","","","","","","","","","","null","<div  style='font-size:500%; position:fixed; text-align: center; top:50%; bottom:50%; right:20%; left:20%'>+</div>","null","","","","","","500","","","","","","","","","","","","","","","","","","",""
"","sat_practicetrial","","html-keyboard-response","20","221632","0.0-18.0-1.1","Beyonce","Gloria","","","","","","","","","","","","","","","","","","","","","2041","<div style='bottom:60%; right:20%; left:20%; position:fixed'><img src=https://realitybending.github.io/IllusionGameSelfAssociation/experiment/SelfAssociation/stimuli/circle.png height=20%></img></div><div  style='font-size:500%; position:fixed; text-align: center; top:50%; bottom:50%; right:20%; left:20%'>+</div><div style = ""font-size:300%; text-align: center; position:fixed; top:70%; left:20%""><b>You</b></br></br></br></br>v</div><div style = ""font-size:300%; text-align: center; position:fixed; top:70%; right:20%; left:20%""><b>Beyonce</b></br></br></br></br>b</div><div style = ""font-size:300%; text-align: center; position:fixed; top:70%; right:20%""><b>Gloria</b></br></br></br></br>n</div>","b","","","","","","","circle","2","Beyonce","Beyonce","true","Stranger","","","","","","","","","","","","",""
"","sat_feedback","","html-keyboard-response","21","222133","0.0-18.0-2.1","Beyonce","Gloria","","","","","","","","","","","","","","","","","","","","","null","<p style = 'font-size: 300%; color:green'>Correct!</p>","null","","","","","","","","","","","","","","","","","","","","","","","","",""
"","sat_fixationcross","","html-keyboard-response","22","222635","0.0-18.0-0.2","Beyonce","Gloria","","","","","","","","","","","","","","","","","","","","","null","<div  style='font-size:500%; position:fixed; text-align: center; top:50%; bottom:50%; right:20%; left:20%'>+</div>","null","","","","","","500","","","","","","","","","","","","","","","","","","",""
"","sat_practicetrial","","html-keyboard-response","23","223931","0.0-18.0-1.2","Beyonce","Gloria","","","","","","","","","","","","","","","","","","","","","1295","<div style='bottom:60%; right:20%; left:20%; position:fixed'><img src=https://realitybending.github.io/IllusionGameSelfAssociation/experiment/SelfAssociation/stimuli/triangle.png height=20%></img></div><div  style='font-size:500%; position:fixed; text-align: center; top:50%; bottom:50%; right:20%; left:20%'>+</div><div style = ""font-size:300%; text-align: center; position:fixed; top:70%; left:20%""><b>You</b></br></br></br></br>v</div><div style = ""font-size:300%; text-align: center; position:fixed; top:70%; right:20%; left:20%""><b>Beyonce</b></br></br></br></br>b</div><div style = ""font-size:300%; text-align: center; position:fixed; top:70%; right:20%""><b>Gloria</b></br></br></br></br>n</div>","n","","","","","","","triangle","3","Gloria","Gloria","true","Friend","","","","","","","","","","","","",""
"","sat_feedback","","html-keyboard-response","24","224433","0.0-18.0-2.2","Beyonce","Gloria","","","","","","","","","","","","","","","","","","","","","null","<p style = 'font-size: 300%; color:green'>Correct!</p>","null","","","","","","","","","","","","","","","","","","","","","","","","",""
"","sat_fixationcross","","html-keyboard-response","25","224935","0.0-18.0-0.3","Beyonce","Gloria","","","","","","","","","","","","","","","","","","","","","null","<div  style='font-size:500%; position:fixed; text-align: center; top:50%; bottom:50%; right:20%; left:20%'>+</div>","null","","","","","","500","","","","","","","","","","","","","","","","","","",""
"","sat_practicetrial","","html-keyboard-response","26","225851","0.0-18.0-1.3","Beyonce","Gloria","","","","","","","","","","","","","","","","","","","","","915","<div style='bottom:60%; right:20%; left:20%; position:fixed'><img src=https://realitybending.github.io/IllusionGameSelfAssociation/experiment/SelfAssociation/stimuli/square.png height=20%></img></div><div  style='font-size:500%; position:fixed; text-align: center; top:50%; bottom:50%; right:20%; left:20%'>+</div><div style = ""font-size:300%; text-align: center; position:fixed; top:70%; left:20%""><b>You</b></br></br></br></br>v</div><div style = ""font-size:300%; text-align: center; position:fixed; top:70%; right:20%; left:20%""><b>Beyonce</b></br></br></br></br>b</div><div style = ""font-size:300%; text-align: center; position:fixed; top:70%; right:20%""><b>Gloria</b></br></br></br></br>n</div>","v","","","","","","","square","4","You","You","true","Self","","","","","","","","","","","","",""
"","sat_feedback","","html-keyboard-response","27","226352","0.0-18.0-2.3","Beyonce","Gloria","","","","","","","","","","","","","","","","","","","","","null","<p style = 'font-size: 300%; color:green'>Correct!</p>","null","","","","","","","","","","","","","","","","","","","","","","","","",""
"","sat_fixationcross","","html-keyboard-response","28","226854","0.0-18.0-0.4","Beyonce","Gloria","","","","","","","","","","","","","","","","","","","","","null","<div  style='font-size:500%; position:fixed; text-align: center; top:50%; bottom:50%; right:20%; left:20%'>+</div>","null","","","","","","500","","","","","","","","","","","","","","","","","","",""
"","sat_practicetrial","","html-keyboard-response","29","227794","0.0-18.0-1.4","Beyonce","Gloria","","","","","","","","","","","","","","","","","","","","","938","<div style='bottom:60%; right:20%; left:20%; position:fixed'><img src=https://realitybending.github.io/IllusionGameSelfAssociation/experiment/SelfAssociation/stimuli/square.png height=20%></img></div><div  style='font-size:500%; position:fixed; text-align: center; top:50%; bottom:50%; right:20%; left:20%'>+</div><div style = ""font-size:300%; text-align: center; position:fixed; top:70%; left:20%""><b>You</b></br></br></br></br>v</div><div style = ""font-size:300%; text-align: center; position:fixed; top:70%; right:20%; left:20%""><b>Beyonce</b></br></br></br></br>b</div><div style = ""font-size:300%; text-align: center; position:fixed; top:70%; right:20%""><b>Gloria</b></br></br></br></br>n</div>","v","","","","","","","square","5","You","You","true","Self","","","","","","","","","","","","",""
"","sat_feedback","","html-keyboard-response","30","228294","0.0-18.0-2.4","Beyonce","Gloria","","","","","","","","","","","","","","","","","","","","","null","<p style = 'font-size: 300%; color:green'>Correct!</p>","null","","","","","","","","","","","","","","","","","","","","","","","","",""
"","sat_fixationcross","","html-keyboard-response","31","228796","0.0-18.0-0.5","Beyonce","Gloria","","","","","","","","","","","","","","","","","","","","","null","<div  style='font-size:500%; position:fixed; text-align: center; top:50%; bottom:50%; right:20%; left:20%'>+</div>","null","","","","","","500","","","","","","","","","","","","","","","","","","",""
"","sat_practicetrial","","html-keyboard-response","32","229654","0.0-18.0-1.5","Beyonce","Gloria","","","","","","","","","","","","","","","","","","","","","857","<div style='bottom:60%; right:20%; left:20%; position:fixed'><img src=https://realitybending.github.io/IllusionGameSelfAssociation/experiment/SelfAssociation/stimuli/triangle.png height=20%></img></div><div  style='font-size:500%; position:fixed; text-align: center; top:50%; bottom:50%; right:20%; left:20%'>+</div><div style = ""font-size:300%; text-align: center; position:fixed; top:70%; left:20%""><b>You</b></br></br></br></br>v</div><div style = ""font-size:300%; text-align: center; position:fixed; top:70%; right:20%; left:20%""><b>Beyonce</b></br></br></br></br>b</div><div style = ""font-size:300%; text-align: center; position:fixed; top:70%; right:20%""><b>Gloria</b></br></br></br></br>n</div>","n","","","","","","","triangle","6","Gloria","Gloria","true","Friend","","","","","","","","","","","","",""
"","sat_feedback","","html-keyboard-response","33","230154","0.0-18.0-2.5","Beyonce","Gloria","","","","","","","","","","","","","","","","","","","","","null","<p style = 'font-size: 300%; color:green'>Correct!</p>","null","","","","","","","","","","","","","","","","","","","","","","","","",""
"","sat_fixationcross","","html-keyboard-response","34","230656","0.0-18.0-0.6","Beyonce","Gloria","","","","","","","","","","","","","","","","","","","","","null","<div  style='font-size:500%; position:fixed; text-align: center; top:50%; bottom:50%; right:20%; left:20%'>+</div>","null","","","","","","500","","","","","","","","","","","","","","","","","","",""
"","sat_practicetrial","","html-keyboard-response","35","232086","0.0-18.0-1.6","Beyonce","Gloria","","","","","","","","","","","","","","","","","","","","","1429","<div style='bottom:60%; right:20%; left:20%; position:fixed'><img src=https://realitybending.github.io/IllusionGameSelfAssociation/experiment/SelfAssociation/stimuli/triangle.png height=20%></img></div><div  style='font-size:500%; position:fixed; text-align: center; top:50%; bottom:50%; right:20%; left:20%'>+</div><div style = ""font-size:300%; text-align: center; position:fixed; top:70%; left:20%""><b>You</b></br></br></br></br>v</div><div style = ""font-size:300%; text-align: center; position:fixed; top:70%; right:20%; left:20%""><b>Beyonce</b></br></br></br></br>b</div><div style = ""font-size:300%; text-align: center; position:fixed; top:70%; right:20%""><b>Gloria</b></br></br></br></br>n</div>","n","","","","","","","triangle","7","Gloria","Gloria","true","Friend","","","","","","","","","","","","",""
"","sat_feedback","","html-keyboard-response","36","232587","0.0-18.0-2.6","Beyonce","Gloria","","","","","","","","","","","","","","","","","","","","","null","<p style = 'font-size: 300%; color:green'>Correct!</p>","null","","","","","","","","","","","","","","","","","","","","","","","","",""
"","sat_fixationcross","","html-keyboard-response","37","233089","0.0-18.0-0.7","Beyonce","Gloria","","","","","","","","","","","","","","","","","","","","","null","<div  style='font-size:500%; position:fixed; text-align: center; top:50%; bottom:50%; right:20%; left:20%'>+</div>","null","","","","","","500","","","","","","","","","","","","","","","","","","",""
"","sat_practicetrial","","html-keyboard-response","38","233831","0.0-18.0-1.7","Beyonce","Gloria","","","","","","","","","","","","","","","","","","","","","741","<div style='bottom:60%; right:20%; left:20%; position:fixed'><img src=https://realitybending.github.io/IllusionGameSelfAssociation/experiment/SelfAssociation/stimuli/triangle.png height=20%></img></div><div  style='font-size:500%; position:fixed; text-align: center; top:50%; bottom:50%; right:20%; left:20%'>+</div><div style = ""font-size:300%; text-align: center; position:fixed; top:70%; left:20%""><b>You</b></br></br></br></br>v</div><div style = ""font-size:300%; text-align: center; position:fixed; top:70%; right:20%; left:20%""><b>Beyonce</b></br></br></br></br>b</div><div style = ""font-size:300%; text-align: center; position:fixed; top:70%; right:20%""><b>Gloria</b></br></br></br></br>n</div>","n","","","","","","","triangle","8","Gloria","Gloria","true","Friend","","","","","","","","","","","","",""
"","sat_feedback","","html-keyboard-response","39","234333","0.0-18.0-2.7","Beyonce","Gloria","","","","","","","","","","","","","","","","","","","","","null","<p style = 'font-size: 300%; color:green'>Correct!</p>","null","","","","","","","","","","","","","","","","","","","","","","","","",""
"","sat_fixationcross","","html-keyboard-response","40","234834","0.0-18.0-0.8","Beyonce","Gloria","","","","","","","","","","","","","","","","","","","","","null","<div  style='font-size:500%; position:fixed; text-align: center; top:50%; bottom:50%; right:20%; left:20%'>+</div>","null","","","","","","500","","","","","","","","","","","","","","","","","","",""
"","sat_practicetrial","","html-keyboard-response","41","235773","0.0-18.0-1.8","Beyonce","Gloria","","","","","","","","","","","","","","","","","","","","","938","<div style='bottom:60%; right:20%; left:20%; position:fixed'><img src=https://realitybending.github.io/IllusionGameSelfAssociation/experiment/SelfAssociation/stimuli/circle.png height=20%></img></div><div  style='font-size:500%; position:fixed; text-align: center; top:50%; bottom:50%; right:20%; left:20%'>+</div><div style = ""font-size:300%; text-align: center; position:fixed; top:70%; left:20%""><b>You</b></br></br></br></br>v</div><div style = ""font-size:300%; text-align: center; position:fixed; top:70%; right:20%; left:20%""><b>Beyonce</b></br></br></br></br>b</div><div style = ""font-size:300%; text-align: center; position:fixed; top:70%; right:20%""><b>Gloria</b></br></br></br></br>n</div>","b","","","","","","","circle","9","Beyonce","Beyonce","true","Stranger","","","","","","","","","","","","",""
"","sat_feedback","","html-keyboard-response","42","236275","0.0-18.0-2.8","Beyonce","Gloria","","","","","","","","","","","","","","","","","","","","","null","<p style = 'font-size: 300%; color:green'>Correct!</p>","null","","","","","","","","","","","","","","","","","","","","","","","","",""
"","sat_fixationcross","","html-keyboard-response","43","236777","0.0-18.0-0.9","Beyonce","Gloria","","","","","","","","","","","","","","","","","","","","","null","<div  style='font-size:500%; position:fixed; text-align: center; top:50%; bottom:50%; right:20%; left:20%'>+</div>","null","","","","","","500","","","","","","","","","","","","","","","","","","",""
"","sat_practicetrial","","html-keyboard-response","44","238652","0.0-18.0-1.9","Beyonce","Gloria","","","","","","","","","","","","","","","","","","","","","1874","<div style='bottom:60%; right:20%; left:20%; position:fixed'><img src=https://realitybending.github.io/IllusionGameSelfAssociation/experiment/SelfAssociation/stimuli/circle.png height=20%></img></div><div  style='font-size:500%; position:fixed; text-align: center; top:50%; bottom:50%; right:20%; left:20%'>+</div><div style = ""font-size:300%; text-align: center; position:fixed; top:70%; left:20%""><b>You</b></br></br></br></br>v</div><div style = ""font-size:300%; text-align: center; position:fixed; top:70%; right:20%; left:20%""><b>Beyonce</b></br></br></br></br>b</div><div style = ""font-size:300%; text-align: center; position:fixed; top:70%; right:20%""><b>Gloria</b></br></br></br></br>n</div>","b","","","","","","","circle","10","Beyonce","Beyonce","true","Stranger","","","","","","","","","","","","",""
"","sat_feedback","","html-keyboard-response","45","239154","0.0-18.0-2.9","Beyonce","Gloria","","","","","","","","","","","","","","","","","","","","","null","<p style = 'font-size: 300%; color:green'>Correct!</p>","null","","","","","","","","","","","","","","","","","","","","","","","","",""
"","sat_fixationcross","","html-keyboard-response","46","239656","0.0-18.0-0.10","Beyonce","Gloria","","","","","","","","","","","","","","","","","","","","","null","<div  style='font-size:500%; position:fixed; text-align: center; top:50%; bottom:50%; right:20%; left:20%'>+</div>","null","","","","","","500","","","","","","","","","","","","","","","","","","",""
"","sat_practicetrial","","html-keyboard-response","47","240455","0.0-18.0-1.10","Beyonce","Gloria","","","","","","","","","","","","","","","","","","","","","798","<div style='bottom:60%; right:20%; left:20%; position:fixed'><img src=https://realitybending.github.io/IllusionGameSelfAssociation/experiment/SelfAssociation/stimuli/triangle.png height=20%></img></div><div  style='font-size:500%; position:fixed; text-align: center; top:50%; bottom:50%; right:20%; left:20%'>+</div><div style = ""font-size:300%; text-align: center; position:fixed; top:70%; left:20%""><b>You</b></br></br></br></br>v</div><div style = ""font-size:300%; text-align: center; position:fixed; top:70%; right:20%; left:20%""><b>Beyonce</b></br></br></br></br>b</div><div style = ""font-size:300%; text-align: center; position:fixed; top:70%; right:20%""><b>Gloria</b></br></br></br></br>n</div>","n","","","","","","","triangle","11","Gloria","Gloria","true","Friend","","","","","","","","","","","","",""
"","sat_feedback","","html-keyboard-response","48","240956","0.0-18.0-2.10","Beyonce","Gloria","","","","","","","","","","","","","","","","","","","","","null","<p style = 'font-size: 300%; color:green'>Correct!</p>","null","","","","","","","","","","","","","","","","","","","","","","","","",""
"","sat_fixationcross","","html-keyboard-response","49","241457","0.0-18.0-0.11","Beyonce","Gloria","","","","","","","","","","","","","","","","","","","","","null","<div  style='font-size:500%; position:fixed; text-align: center; top:50%; bottom:50%; right:20%; left:20%'>+</div>","null","","","","","","500","","","","","","","","","","","","","","","","","","",""
"","sat_practicetrial","","html-keyboard-response","50","242315","0.0-18.0-1.11","Beyonce","Gloria","","","","","","","","","","","","","","","","","","","","","857","<div style='bottom:60%; right:20%; left:20%; position:fixed'><img src=https://realitybending.github.io/IllusionGameSelfAssociation/experiment/SelfAssociation/stimuli/triangle.png height=20%></img></div><div  style='font-size:500%; position:fixed; text-align: center; top:50%; bottom:50%; right:20%; left:20%'>+</div><div style = ""font-size:300%; text-align: center; position:fixed; top:70%; left:20%""><b>You</b></br></br></br></br>v</div><div style = ""font-size:300%; text-align: center; position:fixed; top:70%; right:20%; left:20%""><b>Beyonce</b></br></br></br></br>b</div><div style = ""font-size:300%; text-align: center; position:fixed; top:70%; right:20%""><b>Gloria</b></br></br></br></br>n</div>","n","","","","","","","triangle","12","Gloria","Gloria","true","Friend","","","","","","","","","","","","",""
"","sat_feedback","","html-keyboard-response","51","242817","0.0-18.0-2.11","Beyonce","Gloria","","","","","","","","","","","","","","","","","","","","","null","<p style = 'font-size: 300%; color:green'>Correct!</p>","null","","","","","","","","","","","","","","","","","","","","","","","","",""
"","sat_fixationcross","","html-keyboard-response","52","243319","0.0-18.0-0.12","Beyonce","Gloria","","","","","","","","","","","","","","","","","","","","","null","<div  style='font-size:500%; position:fixed; text-align: center; top:50%; bottom:50%; right:20%; left:20%'>+</div>","null","","","","","","500","","","","","","","","","","","","","","","","","","",""
"","sat_practicetrial","","html-keyboard-response","53","244037","0.0-18.0-1.12","Beyonce","Gloria","","","","","","","","","","","","","","","","","","","","","717","<div style='bottom:60%; right:20%; left:20%; position:fixed'><img src=https://realitybending.github.io/IllusionGameSelfAssociation/experiment/SelfAssociation/stimuli/triangle.png height=20%></img></div><div  style='font-size:500%; position:fixed; text-align: center; top:50%; bottom:50%; right:20%; left:20%'>+</div><div style = ""font-size:300%; text-align: center; position:fixed; top:70%; left:20%""><b>You</b></br></br></br></br>v</div><div style = ""font-size:300%; text-align: center; position:fixed; top:70%; right:20%; left:20%""><b>Beyonce</b></br></br></br></br>b</div><div style = ""font-size:300%; text-align: center; position:fixed; top:70%; right:20%""><b>Gloria</b></br></br></br></br>n</div>","n","","","","","","","triangle","13","Gloria","Gloria","true","Friend","","","","","","","","","","","","",""
"","sat_feedback","","html-keyboard-response","54","244538","0.0-18.0-2.12","Beyonce","Gloria","","","","","","","","","","","","","","","","","","","","","null","<p style = 'font-size: 300%; color:green'>Correct!</p>","null","","","","","","","","","","","","","","","","","","","","","","","","",""
"","sat_fixationcross","","html-keyboard-response","55","245040","0.0-18.0-0.13","Beyonce","Gloria","","","","","","","","","","","","","","","","","","","","","null","<div  style='font-size:500%; position:fixed; text-align: center; top:50%; bottom:50%; right:20%; left:20%'>+</div>","null","","","","","","500","","","","","","","","","","","","","","","","","","",""
"","sat_practicetrial","","html-keyboard-response","56","245634","0.0-18.0-1.13","Beyonce","Gloria","","","","","","","","","","","","","","","","","","","","","593","<div style='bottom:60%; right:20%; left:20%; position:fixed'><img src=https://realitybending.github.io/IllusionGameSelfAssociation/experiment/SelfAssociation/stimuli/circle.png height=20%></img></div><div  style='font-size:500%; position:fixed; text-align: center; top:50%; bottom:50%; right:20%; left:20%'>+</div><div style = ""font-size:300%; text-align: center; position:fixed; top:70%; left:20%""><b>You</b></br></br></br></br>v</div><div style = ""font-size:300%; text-align: center; position:fixed; top:70%; right:20%; left:20%""><b>Beyonce</b></br></br></br></br>b</div><div style = ""font-size:300%; text-align: center; position:fixed; top:70%; right:20%""><b>Gloria</b></br></br></br></br>n</div>","b","","","","","","","circle","14","Beyonce","Beyonce","true","Stranger","","","","","","","","","","","","",""
"","sat_feedback","","html-keyboard-response","57","246136","0.0-18.0-2.13","Beyonce","Gloria","","","","","","","","","","","","","","","","","","","","","null","<p style = 'font-size: 300%; color:green'>Correct!</p>","null","","","","","","","","","","","","","","","","","","","","","","","","",""
"","sat_fixationcross","","html-keyboard-response","58","246638","0.0-18.0-0.14","Beyonce","Gloria","","","","","","","","","","","","","","","","","","","","","null","<div  style='font-size:500%; position:fixed; text-align: center; top:50%; bottom:50%; right:20%; left:20%'>+</div>","null","","","","","","500","","","","","","","","","","","","","","","","","","",""
"","sat_practicetrial","","html-keyboard-response","59","247499","0.0-18.0-1.14","Beyonce","Gloria","","","","","","","","","","","","","","","","","","","","","860","<div style='bottom:60%; right:20%; left:20%; position:fixed'><img src=https://realitybending.github.io/IllusionGameSelfAssociation/experiment/SelfAssociation/stimuli/triangle.png height=20%></img></div><div  style='font-size:500%; position:fixed; text-align: center; top:50%; bottom:50%; right:20%; left:20%'>+</div><div style = ""font-size:300%; text-align: center; position:fixed; top:70%; left:20%""><b>You</b></br></br></br></br>v</div><div style = ""font-size:300%; text-align: center; position:fixed; top:70%; right:20%; left:20%""><b>Beyonce</b></br></br></br></br>b</div><div style = ""font-size:300%; text-align: center; position:fixed; top:70%; right:20%""><b>Gloria</b></br></br></br></br>n</div>","n","","","","","","","triangle","15","Gloria","Gloria","true","Friend","","","","","","","","","","","","",""
"","sat_feedback","","html-keyboard-response","60","247999","0.0-18.0-2.14","Beyonce","Gloria","","","","","","","","","","","","","","","","","","","","","null","<p style = 'font-size: 300%; color:green'>Correct!</p>","null","","","","","","","","","","","","","","","","","","","","","","","","",""
"","sat_fixationcross","","html-keyboard-response","61","248502","0.0-18.0-0.15","Beyonce","Gloria","","","","","","","","","","","","","","","","","","","","","null","<div  style='font-size:500%; position:fixed; text-align: center; top:50%; bottom:50%; right:20%; left:20%'>+</div>","null","","","","","","500","","","","","","","","","","","","","","","","","","",""
"","sat_practicetrial","","html-keyboard-response","62","249058","0.0-18.0-1.15","Beyonce","Gloria","","","","","","","","","","","","","","","","","","","","","555","<div style='bottom:60%; right:20%; left:20%; position:fixed'><img src=https://realitybending.github.io/IllusionGameSelfAssociation/experiment/SelfAssociation/stimuli/square.png height=20%></img></div><div  style='font-size:500%; position:fixed; text-align: center; top:50%; bottom:50%; right:20%; left:20%'>+</div><div style = ""font-size:300%; text-align: center; position:fixed; top:70%; left:20%""><b>You</b></br></br></br></br>v</div><div style = ""font-size:300%; text-align: center; position:fixed; top:70%; right:20%; left:20%""><b>Beyonce</b></br></br></br></br>b</div><div style = ""font-size:300%; text-align: center; position:fixed; top:70%; right:20%""><b>Gloria</b></br></br></br></br>n</div>","v","","","","","","","square","16","You","You","true","Self","","","","","","","","","","","","",""
"","sat_feedback","","html-keyboard-response","63","249560","0.0-18.0-2.15","Beyonce","Gloria","","","","","","","","","","","","","","","","","","","","","null","<p style = 'font-size: 300%; color:green'>Correct!</p>","null","","","","","","","","","","","","","","","","","","","","","","","","",""
"","sat_fixationcross","","html-keyboard-response","64","250062","0.0-18.0-0.16","Beyonce","Gloria","","","","","","","","","","","","","","","","","","","","","null","<div  style='font-size:500%; position:fixed; text-align: center; top:50%; bottom:50%; right:20%; left:20%'>+</div>","null","","","","","","500","","","","","","","","","","","","","","","","","","",""
"","sat_practicetrial","","html-keyboard-response","65","250759","0.0-18.0-1.16","Beyonce","Gloria","","","","","","","","","","","","","","","","","","","","","696","<div style='bottom:60%; right:20%; left:20%; position:fixed'><img src=https://realitybending.github.io/IllusionGameSelfAssociation/experiment/SelfAssociation/stimuli/triangle.png height=20%></img></div><div  style='font-size:500%; position:fixed; text-align: center; top:50%; bottom:50%; right:20%; left:20%'>+</div><div style = ""font-size:300%; text-align: center; position:fixed; top:70%; left:20%""><b>You</b></br></br></br></br>v</div><div style = ""font-size:300%; text-align: center; position:fixed; top:70%; right:20%; left:20%""><b>Beyonce</b></br></br></br></br>b</div><div style = ""font-size:300%; text-align: center; position:fixed; top:70%; right:20%""><b>Gloria</b></br></br></br></br>n</div>","n","","","","","","","triangle","17","Gloria","Gloria","true","Friend","","","","","","","","","","","","",""
"","sat_feedback","","html-keyboard-response","66","251261","0.0-18.0-2.16","Beyonce","Gloria","","","","","","","","","","","","","","","","","","","","","null","<p style = 'font-size: 300%; color:green'>Correct!</p>","null","","","","","","","","","","","","","","","","","","","","","","","","",""
"","sat_fixationcross","","html-keyboard-response","67","251763","0.0-18.0-0.17","Beyonce","Gloria","","","","","","","","","","","","","","","","","","","","","null","<div  style='font-size:500%; position:fixed; text-align: center; top:50%; bottom:50%; right:20%; left:20%'>+</div>","null","","","","","","500","","","","","","","","","","","","","","","","","","",""
"","sat_practicetrial","","html-keyboard-response","68","252381","0.0-18.0-1.17","Beyonce","Gloria","","","","","","","","","","","","","","","","","","","","","618","<div style='bottom:60%; right:20%; left:20%; position:fixed'><img src=https://realitybending.github.io/IllusionGameSelfAssociation/experiment/SelfAssociation/stimuli/circle.png height=20%></img></div><div  style='font-size:500%; position:fixed; text-align: center; top:50%; bottom:50%; right:20%; left:20%'>+</div><div style = ""font-size:300%; text-align: center; position:fixed; top:70%; left:20%""><b>You</b></br></br></br></br>v</div><div style = ""font-size:300%; text-align: center; position:fixed; top:70%; right:20%; left:20%""><b>Beyonce</b></br></br></br></br>b</div><div style = ""font-size:300%; text-align: center; position:fixed; top:70%; right:20%""><b>Gloria</b></br></br></br></br>n</div>","b","","","","","","","circle","18","Beyonce","Beyonce","true","Stranger","","","","","","","","","","","","",""
"","sat_feedback","","html-keyboard-response","69","252883","0.0-18.0-2.17","Beyonce","Gloria","","","","","","","","","","","","","","","","","","","","","null","<p style = 'font-size: 300%; color:green'>Correct!</p>","null","","","","","","","","","","","","","","","","","","","","","","","","",""
"","sat_fixationcross","","html-keyboard-response","70","253385","0.0-18.0-0.18","Beyonce","Gloria","","","","","","","","","","","","","","","","","","","","","null","<div  style='font-size:500%; position:fixed; text-align: center; top:50%; bottom:50%; right:20%; left:20%'>+</div>","null","","","","","","500","","","","","","","","","","","","","","","","","","",""
"","sat_practicetrial","","html-keyboard-response","71","254607","0.0-18.0-1.18","Beyonce","Gloria","","","","","","","","","","","","","","","","","","","","","1220","<div style='bottom:60%; right:20%; left:20%; position:fixed'><img src=https://realitybending.github.io/IllusionGameSelfAssociation/experiment/SelfAssociation/stimuli/circle.png height=20%></img></div><div  style='font-size:500%; position:fixed; text-align: center; top:50%; bottom:50%; right:20%; left:20%'>+</div><div style = ""font-size:300%; text-align: center; position:fixed; top:70%; left:20%""><b>You</b></br></br></br></br>v</div><div style = ""font-size:300%; text-align: center; position:fixed; top:70%; right:20%; left:20%""><b>Beyonce</b></br></br></br></br>b</div><div style = ""font-size:300%; text-align: center; position:fixed; top:70%; right:20%""><b>Gloria</b></br></br></br></br>n</div>","b","","","","","","","circle","19","Beyonce","Beyonce","true","Stranger","","","","","","","","","","","","",""
"","sat_practice_end","","html-button-response","72","256608","0.0-19.0","Beyonce","Gloria","","","","","","","","","","","","","","","","","","","","","1999","<h1>Congratulations!</h1><p>You have completed the training.</p>","0","","","","","","","","","","","","","","","","","","","","","","","","",""
"","matching_instructions","","html-button-response","73","273324","0.0-20.0","Beyonce","Gloria","","","","","","","","","","","","","","","","","","","","","16715","<h1>Instructions</h1><p>In this part of the game, the previous shapes will be re-assigned to the labels.</p><p>Your task will be then to decide if the presented shape matches their newly assigned label as quickly and accurately as possible.</p><p>If the shape-label pair is a <b>match</b>, press <b>'e'</b>.</p><p>If the shape-label pair is <b>not a match</b>, press <b>'i'</b></p><br><p>Good luck!</p>","0","","","","","","","","","","","","","","","","","","","","","","","","",""
"","SAT_assignmentscreen","","html-button-response","74","289695","0.0-21.0","Beyonce","Gloria","","","","","","","","","","","","","","","","","","","","","16369","<h1>Instructions</h1><div id ='align-middle'><b>You</b> will be represented by a  <b>circle</b>  <img src= https://realitybending.github.io/IllusionGameSelfAssociation/experiment/SelfAssociation/stimuli/circle.png height=40></img></div><br><div id ='align-middle'><b>Beyonce</b> will be represented by a  <b>triangle</b>  <img src= https://realitybending.github.io/IllusionGameSelfAssociation/experiment/SelfAssociation/stimuli/triangle.png height=40></img></div><br><div id = 'align-middle'><b>Gloria</b> will be represented by a  <b>square</b>  <img src= https://realitybending.github.io/IllusionGameSelfAssociation/experiment/SelfAssociation/stimuli/square.png height=40></img></div><br>","0","","","","","","","","","","","","","","","","","","","","","","","","",""
"","sat_fixationcross","","html-keyboard-response","75","290197","0.0-22.0-0.0","Beyonce","Gloria","","","","","","","","","","","","","","","","","","","","","null","<div  style='font-size:500%; position:fixed; text-align: center; top:50%; bottom:50%; right:20%; left:20%'>+</div>","null","","","","","","500","","","","","","","","","","","","","","","","","","",""
"","sat_trial","","html-keyboard-response","76","291636","0.0-22.0-1.0","Beyonce","Gloria","","","","","","","","","","","","","","","","","","","","","1437","<div style='bottom:60%; right:20%; left:20%; position:fixed'><img src=https://realitybending.github.io/IllusionGameSelfAssociation/experiment/SelfAssociation/stimuli/circle.png height=20%></img></div><div  style='font-size:500%; position:fixed; text-align: center; top:50%; bottom:50%; right:20%; left:20%'>+</div><div style = ""font-size:300%; text-align: center; position:fixed; top:70%; right:20%; left:20%""><b>You</div>","e","","","","","","","circle","1","match","match","true","","Self","1","","","","","","","","","","",""
"","sat_feedback","","html-keyboard-response","77","292138","0.0-22.0-2.0","Beyonce","Gloria","","","","","","","","","","","","","","","","","","","","","null","<p style = 'font-size: 300%; color:green'>Correct!</p>","null","","","","","","","","","","","","","","","","","","","","","","","","",""
"","sat_fixationcross","","html-keyboard-response","78","292640","0.0-22.0-0.1","Beyonce","Gloria","","","","","","","","","","","","","","","","","","","","","null","<div  style='font-size:500%; position:fixed; text-align: center; top:50%; bottom:50%; right:20%; left:20%'>+</div>","null","","","","","","500","","","","","","","","","","","","","","","","","","",""
"","sat_trial","","html-keyboard-response","79","294225","0.0-22.0-1.1","Beyonce","Gloria","","","","","","","","","","","","","","","","","","","","","1584","<div style='bottom:60%; right:20%; left:20%; position:fixed'><img src=https://realitybending.github.io/IllusionGameSelfAssociation/experiment/SelfAssociation/stimuli/triangle.png height=20%></img></div><div  style='font-size:500%; position:fixed; text-align: center; top:50%; bottom:50%; right:20%; left:20%'>+</div><div style = ""font-size:300%; text-align: center; position:fixed; top:70%; right:20%; left:20%""><b>Beyonce</div>","i","","","","","","","triangle","2","mismatch","match","false","","Stranger","1","","","","","","","","","","",""
"","sat_feedback","","html-keyboard-response","80","294726","0.0-22.0-2.1","Beyonce","Gloria","","","","","","","","","","","","","","","","","","","","","null","<p style = 'font-size: 300%; color:red'>Incorrect!</p>","null","","","","","","","","","","","","","","","","","","","","","","","","",""
"","sat_fixationcross","","html-keyboard-response","81","295229","0.0-22.0-0.2","Beyonce","Gloria","","","","","","","","","","","","","","","","","","","","","null","<div  style='font-size:500%; position:fixed; text-align: center; top:50%; bottom:50%; right:20%; left:20%'>+</div>","null","","","","","","500","","","","","","","","","","","","","","","","","","",""
"","sat_trial","","html-keyboard-response","82","296384","0.0-22.0-1.2","Beyonce","Gloria","","","","","","","","","","","","","","","","","","","","","1155","<div style='bottom:60%; right:20%; left:20%; position:fixed'><img src=https://realitybending.github.io/IllusionGameSelfAssociation/experiment/SelfAssociation/stimuli/square.png height=20%></img></div><div  style='font-size:500%; position:fixed; text-align: center; top:50%; bottom:50%; right:20%; left:20%'>+</div><div style = ""font-size:300%; text-align: center; position:fixed; top:70%; right:20%; left:20%""><b>You</div>","i","","","","","","","square","3","mismatch","mismatch","true","","Self","1","","","","","","","","","","",""
"","sat_feedback","","html-keyboard-response","83","296885","0.0-22.0-2.2","Beyonce","Gloria","","","","","","","","","","","","","","","","","","","","","null","<p style = 'font-size: 300%; color:green'>Correct!</p>","null","","","","","","","","","","","","","","","","","","","","","","","","",""
"","sat_fixationcross","","html-keyboard-response","84","297387","0.0-22.0-0.3","Beyonce","Gloria","","","","","","","","","","","","","","","","","","","","","null","<div  style='font-size:500%; position:fixed; text-align: center; top:50%; bottom:50%; right:20%; left:20%'>+</div>","null","","","","","","500","","","","","","","","","","","","","","","","","","",""
"","sat_trial","","html-keyboard-response","85","298723","0.0-22.0-1.3","Beyonce","Gloria","","","","","","","","","","","","","","","","","","","","","1335","<div style='bottom:60%; right:20%; left:20%; position:fixed'><img src=https://realitybending.github.io/IllusionGameSelfAssociation/experiment/SelfAssociation/stimuli/triangle.png height=20%></img></div><div  style='font-size:500%; position:fixed; text-align: center; top:50%; bottom:50%; right:20%; left:20%'>+</div><div style = ""font-size:300%; text-align: center; position:fixed; top:70%; right:20%; left:20%""><b>Beyonce</div>","e","","","","","","","triangle","4","match","match","true","","Stranger","1","","","","","","","","","","",""
"","sat_feedback","","html-keyboard-response","86","299224","0.0-22.0-2.3","Beyonce","Gloria","","","","","","","","","","","","","","","","","","","","","null","<p style = 'font-size: 300%; color:green'>Correct!</p>","null","","","","","","","","","","","","","","","","","","","","","","","","",""
"","sat_fixationcross","","html-keyboard-response","87","299726","0.0-22.0-0.4","Beyonce","Gloria","","","","","","","","","","","","","","","","","","","","","null","<div  style='font-size:500%; position:fixed; text-align: center; top:50%; bottom:50%; right:20%; left:20%'>+</div>","null","","","","","","500","","","","","","","","","","","","","","","","","","",""
"","sat_trial","","html-keyboard-response","88","300498","0.0-22.0-1.4","Beyonce","Gloria","","","","","","","","","","","","","","","","","","","","","770","<div style='bottom:60%; right:20%; left:20%; position:fixed'><img src=https://realitybending.github.io/IllusionGameSelfAssociation/experiment/SelfAssociation/stimuli/triangle.png height=20%></img></div><div  style='font-size:500%; position:fixed; text-align: center; top:50%; bottom:50%; right:20%; left:20%'>+</div><div style = ""font-size:300%; text-align: center; position:fixed; top:70%; right:20%; left:20%""><b>Gloria</div>","i","","","","","","","triangle","5","mismatch","mismatch","true","","Friend","1","","","","","","","","","","",""
"","sat_feedback","","html-keyboard-response","89","300999","0.0-22.0-2.4","Beyonce","Gloria","","","","","","","","","","","","","","","","","","","","","null","<p style = 'font-size: 300%; color:green'>Correct!</p>","null","","","","","","","","","","","","","","","","","","","","","","","","",""
"","sat_fixationcross","","html-keyboard-response","90","301501","0.0-22.0-0.5","Beyonce","Gloria","","","","","","","","","","","","","","","","","","","","","null","<div  style='font-size:500%; position:fixed; text-align: center; top:50%; bottom:50%; right:20%; left:20%'>+</div>","null","","","","","","500","","","","","","","","","","","","","","","","","","",""
"","sat_trial","","html-keyboard-response","91","302398","0.0-22.0-1.5","Beyonce","Gloria","","","","","","","","","","","","","","","","","","","","","896","<div style='bottom:60%; right:20%; left:20%; position:fixed'><img src=https://realitybending.github.io/IllusionGameSelfAssociation/experiment/SelfAssociation/stimuli/square.png height=20%></img></div><div  style='font-size:500%; position:fixed; text-align: center; top:50%; bottom:50%; right:20%; left:20%'>+</div><div style = ""font-size:300%; text-align: center; position:fixed; top:70%; right:20%; left:20%""><b>Beyonce</div>","i","","","","","","","square","6","mismatch","mismatch","true","","Stranger","1","","","","","","","","","","",""
"","sat_feedback","","html-keyboard-response","92","302899","0.0-22.0-2.5","Beyonce","Gloria","","","","","","","","","","","","","","","","","","","","","null","<p style = 'font-size: 300%; color:green'>Correct!</p>","null","","","","","","","","","","","","","","","","","","","","","","","","",""
"","sat_fixationcross","","html-keyboard-response","93","303401","0.0-22.0-0.6","Beyonce","Gloria","","","","","","","","","","","","","","","","","","","","","null","<div  style='font-size:500%; position:fixed; text-align: center; top:50%; bottom:50%; right:20%; left:20%'>+</div>","null","","","","","","500","","","","","","","","","","","","","","","","","","",""
"","sat_trial","","html-keyboard-response","94","304312","0.0-22.0-1.6","Beyonce","Gloria","","","","","","","","","","","","","","","","","","","","","910","<div style='bottom:60%; right:20%; left:20%; position:fixed'><img src=https://realitybending.github.io/IllusionGameSelfAssociation/experiment/SelfAssociation/stimuli/triangle.png height=20%></img></div><div  style='font-size:500%; position:fixed; text-align: center; top:50%; bottom:50%; right:20%; left:20%'>+</div><div style = ""font-size:300%; text-align: center; position:fixed; top:70%; right:20%; left:20%""><b>Gloria</div>","i","","","","","","","triangle","7","mismatch","mismatch","true","","Friend","1","","","","","","","","","","",""
"","sat_feedback","","html-keyboard-response","95","304814","0.0-22.0-2.6","Beyonce","Gloria","","","","","","","","","","","","","","","","","","","","","null","<p style = 'font-size: 300%; color:green'>Correct!</p>","null","","","","","","","","","","","","","","","","","","","","","","","","",""
"","sat_fixationcross","","html-keyboard-response","96","305316","0.0-22.0-0.7","Beyonce","Gloria","","","","","","","","","","","","","","","","","","","","","null","<div  style='font-size:500%; position:fixed; text-align: center; top:50%; bottom:50%; right:20%; left:20%'>+</div>","null","","","","","","500","","","","","","","","","","","","","","","","","","",""
"","sat_trial","","html-keyboard-response","97","306034","0.0-22.0-1.7","Beyonce","Gloria","","","","","","","","","","","","","","","","","","","","","717","<div style='bottom:60%; right:20%; left:20%; position:fixed'><img src=https://realitybending.github.io/IllusionGameSelfAssociation/experiment/SelfAssociation/stimuli/circle.png height=20%></img></div><div  style='font-size:500%; position:fixed; text-align: center; top:50%; bottom:50%; right:20%; left:20%'>+</div><div style = ""font-size:300%; text-align: center; position:fixed; top:70%; right:20%; left:20%""><b>You</div>","e","","","","","","","circle","8","match","match","true","","Self","1","","","","","","","","","","",""
"","sat_feedback","","html-keyboard-response","98","306535","0.0-22.0-2.7","Beyonce","Gloria","","","","","","","","","","","","","","","","","","","","","null","<p style = 'font-size: 300%; color:green'>Correct!</p>","null","","","","","","","","","","","","","","","","","","","","","","","","",""
"","sat_fixationcross","","html-keyboard-response","99","307037","0.0-22.0-0.8","Beyonce","Gloria","","","","","","","","","","","","","","","","","","","","","null","<div  style='font-size:500%; position:fixed; text-align: center; top:50%; bottom:50%; right:20%; left:20%'>+</div>","null","","","","","","500","","","","","","","","","","","","","","","","","","",""
"","sat_trial","","html-keyboard-response","100","308118","0.0-22.0-1.8","Beyonce","Gloria","","","","","","","","","","","","","","","","","","","","","1080","<div style='bottom:60%; right:20%; left:20%; position:fixed'><img src=https://realitybending.github.io/IllusionGameSelfAssociation/experiment/SelfAssociation/stimuli/triangle.png height=20%></img></div><div  style='font-size:500%; position:fixed; text-align: center; top:50%; bottom:50%; right:20%; left:20%'>+</div><div style = ""font-size:300%; text-align: center; position:fixed; top:70%; right:20%; left:20%""><b>Beyonce</div>","e","","","","","","","triangle","9","match","match","true","","Stranger","1","","","","","","","","","","",""
"","sat_feedback","","html-keyboard-response","101","308619","0.0-22.0-2.8","Beyonce","Gloria","","","","","","","","","","","","","","","","","","","","","null","<p style = 'font-size: 300%; color:green'>Correct!</p>","null","","","","","","","","","","","","","","","","","","","","","","","","",""
"","sat_fixationcross","","html-keyboard-response","102","309122","0.0-22.0-0.9","Beyonce","Gloria","","","","","","","","","","","","","","","","","","","","","null","<div  style='font-size:500%; position:fixed; text-align: center; top:50%; bottom:50%; right:20%; left:20%'>+</div>","null","","","","","","500","","","","","","","","","","","","","","","","","","",""
"","sat_trial","","html-keyboard-response","103","309875","0.0-22.0-1.9","Beyonce","Gloria","","","","","","","","","","","","","","","","","","","","","753","<div style='bottom:60%; right:20%; left:20%; position:fixed'><img src=https://realitybending.github.io/IllusionGameSelfAssociation/experiment/SelfAssociation/stimuli/square.png height=20%></img></div><div  style='font-size:500%; position:fixed; text-align: center; top:50%; bottom:50%; right:20%; left:20%'>+</div><div style = ""font-size:300%; text-align: center; position:fixed; top:70%; right:20%; left:20%""><b>Gloria</div>","i","","","","","","","square","10","mismatch","match","false","","Friend","1","","","","","","","","","","",""
"","sat_feedback","","html-keyboard-response","104","310376","0.0-22.0-2.9","Beyonce","Gloria","","","","","","","","","","","","","","","","","","","","","null","<p style = 'font-size: 300%; color:red'>Incorrect!</p>","null","","","","","","","","","","","","","","","","","","","","","","","","",""
"","sat_fixationcross","","html-keyboard-response","105","310879","0.0-22.0-0.10","Beyonce","Gloria","","","","","","","","","","","","","","","","","","","","","null","<div  style='font-size:500%; position:fixed; text-align: center; top:50%; bottom:50%; right:20%; left:20%'>+</div>","null","","","","","","500","","","","","","","","","","","","","","","","","","",""
"","sat_trial","","html-keyboard-response","106","311905","0.0-22.0-1.10","Beyonce","Gloria","","","","","","","","","","","","","","","","","","","","","1025","<div style='bottom:60%; right:20%; left:20%; position:fixed'><img src=https://realitybending.github.io/IllusionGameSelfAssociation/experiment/SelfAssociation/stimuli/circle.png height=20%></img></div><div  style='font-size:500%; position:fixed; text-align: center; top:50%; bottom:50%; right:20%; left:20%'>+</div><div style = ""font-size:300%; text-align: center; position:fixed; top:70%; right:20%; left:20%""><b>You</div>","e","","","","","","","circle","11","match","match","true","","Self","1","","","","","","","","","","",""
"","sat_feedback","","html-keyboard-response","107","312406","0.0-22.0-2.10","Beyonce","Gloria","","","","","","","","","","","","","","","","","","","","","null","<p style = 'font-size: 300%; color:green'>Correct!</p>","null","","","","","","","","","","","","","","","","","","","","","","","","",""
"","sat_fixationcross","","html-keyboard-response","108","312907","0.0-22.0-0.11","Beyonce","Gloria","","","","","","","","","","","","","","","","","","","","","null","<div  style='font-size:500%; position:fixed; text-align: center; top:50%; bottom:50%; right:20%; left:20%'>+</div>","null","","","","","","500","","","","","","","","","","","","","","","","","","",""
"","sat_trial","","html-keyboard-response","109","313697","0.0-22.0-1.11","Beyonce","Gloria","","","","","","","","","","","","","","","","","","","","","789","<div style='bottom:60%; right:20%; left:20%; position:fixed'><img src=https://realitybending.github.io/IllusionGameSelfAssociation/experiment/SelfAssociation/stimuli/circle.png height=20%></img></div><div  style='font-size:500%; position:fixed; text-align: center; top:50%; bottom:50%; right:20%; left:20%'>+</div><div style = ""font-size:300%; text-align: center; position:fixed; top:70%; right:20%; left:20%""><b>You</div>","e","","","","","","","circle","12","match","match","true","","Self","1","","","","","","","","","","",""
"","sat_feedback","","html-keyboard-response","110","314198","0.0-22.0-2.11","Beyonce","Gloria","","","","","","","","","","","","","","","","","","","","","null","<p style = 'font-size: 300%; color:green'>Correct!</p>","null","","","","","","","","","","","","","","","","","","","","","","","","",""
"","sat_fixationcross","","html-keyboard-response","111","314700","0.0-22.0-0.12","Beyonce","Gloria","","","","","","","","","","","","","","","","","","","","","null","<div  style='font-size:500%; position:fixed; text-align: center; top:50%; bottom:50%; right:20%; left:20%'>+</div>","null","","","","","","500","","","","","","","","","","","","","","","","","","",""
"","sat_trial","","html-keyboard-response","112","315476","0.0-22.0-1.12","Beyonce","Gloria","","","","","","","","","","","","","","","","","","","","","774","<div style='bottom:60%; right:20%; left:20%; position:fixed'><img src=https://realitybending.github.io/IllusionGameSelfAssociation/experiment/SelfAssociation/stimuli/triangle.png height=20%></img></div><div  style='font-size:500%; position:fixed; text-align: center; top:50%; bottom:50%; right:20%; left:20%'>+</div><div style = ""font-size:300%; text-align: center; position:fixed; top:70%; right:20%; left:20%""><b>Gloria</div>","i","","","","","","","triangle","13","mismatch","mismatch","true","","Friend","1","","","","","","","","","","",""
"","sat_feedback","","html-keyboard-response","113","315977","0.0-22.0-2.12","Beyonce","Gloria","","","","","","","","","","","","","","","","","","","","","null","<p style = 'font-size: 300%; color:green'>Correct!</p>","null","","","","","","","","","","","","","","","","","","","","","","","","",""
"","sat_fixationcross","","html-keyboard-response","114","316479","0.0-22.0-0.13","Beyonce","Gloria","","","","","","","","","","","","","","","","","","","","","null","<div  style='font-size:500%; position:fixed; text-align: center; top:50%; bottom:50%; right:20%; left:20%'>+</div>","null","","","","","","500","","","","","","","","","","","","","","","","","","",""
"","sat_trial","","html-keyboard-response","115","317593","0.0-22.0-1.13","Beyonce","Gloria","","","","","","","","","","","","","","","","","","","","","1113","<div style='bottom:60%; right:20%; left:20%; position:fixed'><img src=https://realitybending.github.io/IllusionGameSelfAssociation/experiment/SelfAssociation/stimuli/square.png height=20%></img></div><div  style='font-size:500%; position:fixed; text-align: center; top:50%; bottom:50%; right:20%; left:20%'>+</div><div style = ""font-size:300%; text-align: center; position:fixed; top:70%; right:20%; left:20%""><b>Beyonce</div>","i","","","","","","","square","14","mismatch","mismatch","true","","Stranger","1","","","","","","","","","","",""
"","sat_feedback","","html-keyboard-response","116","318095","0.0-22.0-2.13","Beyonce","Gloria","","","","","","","","","","","","","","","","","","","","","null","<p style = 'font-size: 300%; color:green'>Correct!</p>","null","","","","","","","","","","","","","","","","","","","","","","","","",""
"","sat_fixationcross","","html-keyboard-response","117","318596","0.0-22.0-0.14","Beyonce","Gloria","","","","","","","","","","","","","","","","","","","","","null","<div  style='font-size:500%; position:fixed; text-align: center; top:50%; bottom:50%; right:20%; left:20%'>+</div>","null","","","","","","500","","","","","","","","","","","","","","","","","","",""
"","sat_trial","","html-keyboard-response","118","319594","0.0-22.0-1.14","Beyonce","Gloria","","","","","","","","","","","","","","","","","","","","","998","<div style='bottom:60%; right:20%; left:20%; position:fixed'><img src=https://realitybending.github.io/IllusionGameSelfAssociation/experiment/SelfAssociation/stimuli/triangle.png height=20%></img></div><div  style='font-size:500%; position:fixed; text-align: center; top:50%; bottom:50%; right:20%; left:20%'>+</div><div style = ""font-size:300%; text-align: center; position:fixed; top:70%; right:20%; left:20%""><b>Gloria</div>","i","","","","","","","triangle","15","mismatch","mismatch","true","","Friend","1","","","","","","","","","","",""
"","sat_feedback","","html-keyboard-response","119","320096","0.0-22.0-2.14","Beyonce","Gloria","","","","","","","","","","","","","","","","","","","","","null","<p style = 'font-size: 300%; color:green'>Correct!</p>","null","","","","","","","","","","","","","","","","","","","","","","","","",""
"","sat_fixationcross","","html-keyboard-response","120","320599","0.0-22.0-0.15","Beyonce","Gloria","","","","","","","","","","","","","","","","","","","","","null","<div  style='font-size:500%; position:fixed; text-align: center; top:50%; bottom:50%; right:20%; left:20%'>+</div>","null","","","","","","500","","","","","","","","","","","","","","","","","","",""
"","sat_trial","","html-keyboard-response","121","321571","0.0-22.0-1.15","Beyonce","Gloria","","","","","","","","","","","","","","","","","","","","","971","<div style='bottom:60%; right:20%; left:20%; position:fixed'><img src=https://realitybending.github.io/IllusionGameSelfAssociation/experiment/SelfAssociation/stimuli/square.png height=20%></img></div><div  style='font-size:500%; position:fixed; text-align: center; top:50%; bottom:50%; right:20%; left:20%'>+</div><div style = ""font-size:300%; text-align: center; position:fixed; top:70%; right:20%; left:20%""><b>Beyonce</div>","i","","","","","","","square","16","mismatch","mismatch","true","","Stranger","1","","","","","","","","","","",""
"","sat_feedback","","html-keyboard-response","122","322072","0.0-22.0-2.15","Beyonce","Gloria","","","","","","","","","","","","","","","","","","","","","null","<p style = 'font-size: 300%; color:green'>Correct!</p>","null","","","","","","","","","","","","","","","","","","","","","","","","",""
"","sat_fixationcross","","html-keyboard-response","123","322575","0.0-22.0-0.16","Beyonce","Gloria","","","","","","","","","","","","","","","","","","","","","null","<div  style='font-size:500%; position:fixed; text-align: center; top:50%; bottom:50%; right:20%; left:20%'>+</div>","null","","","","","","500","","","","","","","","","","","","","","","","","","",""
"","sat_trial","","html-keyboard-response","124","323427","0.0-22.0-1.16","Beyonce","Gloria","","","","","","","","","","","","","","","","","","","","","851","<div style='bottom:60%; right:20%; left:20%; position:fixed'><img src=https://realitybending.github.io/IllusionGameSelfAssociation/experiment/SelfAssociation/stimuli/triangle.png height=20%></img></div><div  style='font-size:500%; position:fixed; text-align: center; top:50%; bottom:50%; right:20%; left:20%'>+</div><div style = ""font-size:300%; text-align: center; position:fixed; top:70%; right:20%; left:20%""><b>Beyonce</div>","i","","","","","","","triangle","17","mismatch","match","false","","Stranger","1","","","","","","","","","","",""
"","sat_feedback","","html-keyboard-response","125","323928","0.0-22.0-2.16","Beyonce","Gloria","","","","","","","","","","","","","","","","","","","","","null","<p style = 'font-size: 300%; color:red'>Incorrect!</p>","null","","","","","","","","","","","","","","","","","","","","","","","","",""
"","sat_fixationcross","","html-keyboard-response","126","324430","0.0-22.0-0.17","Beyonce","Gloria","","","","","","","","","","","","","","","","","","","","","null","<div  style='font-size:500%; position:fixed; text-align: center; top:50%; bottom:50%; right:20%; left:20%'>+</div>","null","","","","","","500","","","","","","","","","","","","","","","","","","",""
"","sat_trial","","html-keyboard-response","127","325262","0.0-22.0-1.17","Beyonce","Gloria","","","","","","","","","","","","","","","","","","","","","831","<div style='bottom:60%; right:20%; left:20%; position:fixed'><img src=https://realitybending.github.io/IllusionGameSelfAssociation/experiment/SelfAssociation/stimuli/square.png height=20%></img></div><div  style='font-size:500%; position:fixed; text-align: center; top:50%; bottom:50%; right:20%; left:20%'>+</div><div style = ""font-size:300%; text-align: center; position:fixed; top:70%; right:20%; left:20%""><b>You</div>","e","","","","","","","square","18","match","mismatch","false","","Self","1","","","","","","","","","","",""
"","sat_feedback","","html-keyboard-response","128","325763","0.0-22.0-2.17","Beyonce","Gloria","","","","","","","","","","","","","","","","","","","","","null","<p style = 'font-size: 300%; color:red'>Incorrect!</p>","null","","","","","","","","","","","","","","","","","","","","","","","","",""
"","sat_fixationcross","","html-keyboard-response","129","326265","0.0-22.0-0.18","Beyonce","Gloria","","","","","","","","","","","","","","","","","","","","","null","<div  style='font-size:500%; position:fixed; text-align: center; top:50%; bottom:50%; right:20%; left:20%'>+</div>","null","","","","","","500","","","","","","","","","","","","","","","","","","",""
"","sat_trial","","html-keyboard-response","130","327195","0.0-22.0-1.18","Beyonce","Gloria","","","","","","","","","","","","","","","","","","","","","930","<div style='bottom:60%; right:20%; left:20%; position:fixed'><img src=https://realitybending.github.io/IllusionGameSelfAssociation/experiment/SelfAssociation/stimuli/triangle.png height=20%></img></div><div  style='font-size:500%; position:fixed; text-align: center; top:50%; bottom:50%; right:20%; left:20%'>+</div><div style = ""font-size:300%; text-align: center; position:fixed; top:70%; right:20%; left:20%""><b>Gloria</div>","i","","","","","","","triangle","19","mismatch","mismatch","true","","Friend","1","","","","","","","","","","",""
"","sat_feedback","","html-keyboard-response","131","327696","0.0-22.0-2.18","Beyonce","Gloria","","","","","","","","","","","","","","","","","","","","","null","<p style = 'font-size: 300%; color:green'>Correct!</p>","null","","","","","","","","","","","","","","","","","","","","","","","","",""
"","sat_fixationcross","","html-keyboard-response","132","328198","0.0-22.0-0.19","Beyonce","Gloria","","","","","","","","","","","","","","","","","","","","","null","<div  style='font-size:500%; position:fixed; text-align: center; top:50%; bottom:50%; right:20%; left:20%'>+</div>","null","","","","","","500","","","","","","","","","","","","","","","","","","",""
"","sat_trial","","html-keyboard-response","133","329076","0.0-22.0-1.19","Beyonce","Gloria","","","","","","","","","","","","","","","","","","","","","877","<div style='bottom:60%; right:20%; left:20%; position:fixed'><img src=https://realitybending.github.io/IllusionGameSelfAssociation/experiment/SelfAssociation/stimuli/circle.png height=20%></img></div><div  style='font-size:500%; position:fixed; text-align: center; top:50%; bottom:50%; right:20%; left:20%'>+</div><div style = ""font-size:300%; text-align: center; position:fixed; top:70%; right:20%; left:20%""><b>You</div>","e","","","","","","","circle","20","match","match","true","","Self","1","","","","","","","","","","",""
"","sat_feedback","","html-keyboard-response","134","329578","0.0-22.0-2.19","Beyonce","Gloria","","","","","","","","","","","","","","","","","","","","","null","<p style = 'font-size: 300%; color:green'>Correct!</p>","null","","","","","","","","","","","","","","","","","","","","","","","","",""
"","sat_fixationcross","","html-keyboard-response","135","330079","0.0-22.0-0.20","Beyonce","Gloria","","","","","","","","","","","","","","","","","","","","","null","<div  style='font-size:500%; position:fixed; text-align: center; top:50%; bottom:50%; right:20%; left:20%'>+</div>","null","","","","","","500","","","","","","","","","","","","","","","","","","",""
"","sat_trial","","html-keyboard-response","136","331118","0.0-22.0-1.20","Beyonce","Gloria","","","","","","","","","","","","","","","","","","","","","1039","<div style='bottom:60%; right:20%; left:20%; position:fixed'><img src=https://realitybending.github.io/IllusionGameSelfAssociation/experiment/SelfAssociation/stimuli/square.png height=20%></img></div><div  style='font-size:500%; position:fixed; text-align: center; top:50%; bottom:50%; right:20%; left:20%'>+</div><div style = ""font-size:300%; text-align: center; position:fixed; top:70%; right:20%; left:20%""><b>You</div>","i","","","","","","","square","21","mismatch","mismatch","true","","Self","1","","","","","","","","","","",""
"","sat_feedback","","html-keyboard-response","137","331620","0.0-22.0-2.20","Beyonce","Gloria","","","","","","","","","","","","","","","","","","","","","null","<p style = 'font-size: 300%; color:green'>Correct!</p>","null","","","","","","","","","","","","","","","","","","","","","","","","",""
"","sat_fixationcross","","html-keyboard-response","138","332122","0.0-22.0-0.21","Beyonce","Gloria","","","","","","","","","","","","","","","","","","","","","null","<div  style='font-size:500%; position:fixed; text-align: center; top:50%; bottom:50%; right:20%; left:20%'>+</div>","null","","","","","","500","","","","","","","","","","","","","","","","","","",""
"","sat_trial","","html-keyboard-response","139","332975","0.0-22.0-1.21","Beyonce","Gloria","","","","","","","","","","","","","","","","","","","","","852","<div style='bottom:60%; right:20%; left:20%; position:fixed'><img src=https://realitybending.github.io/IllusionGameSelfAssociation/experiment/SelfAssociation/stimuli/circle.png height=20%></img></div><div  style='font-size:500%; position:fixed; text-align: center; top:50%; bottom:50%; right:20%; left:20%'>+</div><div style = ""font-size:300%; text-align: center; position:fixed; top:70%; right:20%; left:20%""><b>You</div>","e","","","","","","","circle","22","match","match","true","","Self","1","","","","","","","","","","",""
"","sat_feedback","","html-keyboard-response","140","333477","0.0-22.0-2.21","Beyonce","Gloria","","","","","","","","","","","","","","","","","","","","","null","<p style = 'font-size: 300%; color:green'>Correct!</p>","null","","","","","","","","","","","","","","","","","","","","","","","","",""
"","sat_fixationcross","","html-keyboard-response","141","333979","0.0-22.0-0.22","Beyonce","Gloria","","","","","","","","","","","","","","","","","","","","","null","<div  style='font-size:500%; position:fixed; text-align: center; top:50%; bottom:50%; right:20%; left:20%'>+</div>","null","","","","","","500","","","","","","","","","","","","","","","","","","",""
"","sat_trial","","html-keyboard-response","142","335168","0.0-22.0-1.22","Beyonce","Gloria","","","","","","","","","","","","","","","","","","","","","1187","<div style='bottom:60%; right:20%; left:20%; position:fixed'><img src=https://realitybending.github.io/IllusionGameSelfAssociation/experiment/SelfAssociation/stimuli/triangle.png height=20%></img></div><div  style='font-size:500%; position:fixed; text-align: center; top:50%; bottom:50%; right:20%; left:20%'>+</div><div style = ""font-size:300%; text-align: center; position:fixed; top:70%; right:20%; left:20%""><b>Gloria</div>","e","","","","","","","triangle","23","match","mismatch","false","","Friend","1","","","","","","","","","","",""
"","sat_feedback","","html-keyboard-response","143","335669","0.0-22.0-2.22","Beyonce","Gloria","","","","","","","","","","","","","","","","","","","","","null","<p style = 'font-size: 300%; color:red'>Incorrect!</p>","null","","","","","","","","","","","","","","","","","","","","","","","","",""
"","sat_fixationcross","","html-keyboard-response","144","336171","0.0-22.0-0.23","Beyonce","Gloria","","","","","","","","","","","","","","","","","","","","","null","<div  style='font-size:500%; position:fixed; text-align: center; top:50%; bottom:50%; right:20%; left:20%'>+</div>","null","","","","","","500","","","","","","","","","","","","","","","","","","",""
"","sat_trial","","html-keyboard-response","145","336939","0.0-22.0-1.23","Beyonce","Gloria","","","","","","","","","","","","","","","","","","","","","767","<div style='bottom:60%; right:20%; left:20%; position:fixed'><img src=https://realitybending.github.io/IllusionGameSelfAssociation/experiment/SelfAssociation/stimuli/square.png height=20%></img></div><div  style='font-size:500%; position:fixed; text-align: center; top:50%; bottom:50%; right:20%; left:20%'>+</div><div style = ""font-size:300%; text-align: center; position:fixed; top:70%; right:20%; left:20%""><b>You</div>","e","","","","","","","square","24","match","mismatch","false","","Self","1","","","","","","","","","","",""
"","sat_feedback","","html-keyboard-response","146","337440","0.0-22.0-2.23","Beyonce","Gloria","","","","","","","","","","","","","","","","","","","","","null","<p style = 'font-size: 300%; color:red'>Incorrect!</p>","null","","","","","","","","","","","","","","","","","","","","","","","","",""
"","sat_fixationcross","","html-keyboard-response","147","337942","0.0-22.0-0.24","Beyonce","Gloria","","","","","","","","","","","","","","","","","","","","","null","<div  style='font-size:500%; position:fixed; text-align: center; top:50%; bottom:50%; right:20%; left:20%'>+</div>","null","","","","","","500","","","","","","","","","","","","","","","","","","",""
"","sat_trial","","html-keyboard-response","148","339071","0.0-22.0-1.24","Beyonce","Gloria","","","","","","","","","","","","","","","","","","","","","1128","<div style='bottom:60%; right:20%; left:20%; position:fixed'><img src=https://realitybending.github.io/IllusionGameSelfAssociation/experiment/SelfAssociation/stimuli/square.png height=20%></img></div><div  style='font-size:500%; position:fixed; text-align: center; top:50%; bottom:50%; right:20%; left:20%'>+</div><div style = ""font-size:300%; text-align: center; position:fixed; top:70%; right:20%; left:20%""><b>Gloria</div>","e","","","","","","","square","25","match","match","true","","Friend","1","","","","","","","","","","",""
"","sat_feedback","","html-keyboard-response","149","339573","0.0-22.0-2.24","Beyonce","Gloria","","","","","","","","","","","","","","","","","","","","","null","<p style = 'font-size: 300%; color:green'>Correct!</p>","null","","","","","","","","","","","","","","","","","","","","","","","","",""
"","sat_fixationcross","","html-keyboard-response","150","340074","0.0-22.0-0.25","Beyonce","Gloria","","","","","","","","","","","","","","","","","","","","","null","<div  style='font-size:500%; position:fixed; text-align: center; top:50%; bottom:50%; right:20%; left:20%'>+</div>","null","","","","","","500","","","","","","","","","","","","","","","","","","",""
"","sat_trial","","html-keyboard-response","151","341216","0.0-22.0-1.25","Beyonce","Gloria","","","","","","","","","","","","","","","","","","","","","1141","<div style='bottom:60%; right:20%; left:20%; position:fixed'><img src=https://realitybending.github.io/IllusionGameSelfAssociation/experiment/SelfAssociation/stimuli/square.png height=20%></img></div><div  style='font-size:500%; position:fixed; text-align: center; top:50%; bottom:50%; right:20%; left:20%'>+</div><div style = ""font-size:300%; text-align: center; position:fixed; top:70%; right:20%; left:20%""><b>Beyonce</div>","i","","","","","","","square","26","mismatch","mismatch","true","","Stranger","1","","","","","","","","","","",""
"","sat_feedback","","html-keyboard-response","152","341717","0.0-22.0-2.25","Beyonce","Gloria","","","","","","","","","","","","","","","","","","","","","null","<p style = 'font-size: 300%; color:green'>Correct!</p>","null","","","","","","","","","","","","","","","","","","","","","","","","",""
"","sat_fixationcross","","html-keyboard-response","153","342220","0.0-22.0-0.26","Beyonce","Gloria","","","","","","","","","","","","","","","","","","","","","null","<div  style='font-size:500%; position:fixed; text-align: center; top:50%; bottom:50%; right:20%; left:20%'>+</div>","null","","","","","","500","","","","","","","","","","","","","","","","","","",""
"","sat_trial","","html-keyboard-response","154","343277","0.0-22.0-1.26","Beyonce","Gloria","","","","","","","","","","","","","","","","","","","","","1056","<div style='bottom:60%; right:20%; left:20%; position:fixed'><img src=https://realitybending.github.io/IllusionGameSelfAssociation/experiment/SelfAssociation/stimuli/triangle.png height=20%></img></div><div  style='font-size:500%; position:fixed; text-align: center; top:50%; bottom:50%; right:20%; left:20%'>+</div><div style = ""font-size:300%; text-align: center; position:fixed; top:70%; right:20%; left:20%""><b>Gloria</div>","i","","","","","","","triangle","27","mismatch","mismatch","true","","Friend","1","","","","","","","","","","",""
"","sat_feedback","","html-keyboard-response","155","343778","0.0-22.0-2.26","Beyonce","Gloria","","","","","","","","","","","","","","","","","","","","","null","<p style = 'font-size: 300%; color:green'>Correct!</p>","null","","","","","","","","","","","","","","","","","","","","","","","","",""
"","sat_fixationcross","","html-keyboard-response","156","344278","0.0-22.0-0.27","Beyonce","Gloria","","","","","","","","","","","","","","","","","","","","","null","<div  style='font-size:500%; position:fixed; text-align: center; top:50%; bottom:50%; right:20%; left:20%'>+</div>","null","","","","","","500","","","","","","","","","","","","","","","","","","",""
"","sat_trial","","html-keyboard-response","157","345475","0.0-22.0-1.27","Beyonce","Gloria","","","","","","","","","","","","","","","","","","","","","1196","<div style='bottom:60%; right:20%; left:20%; position:fixed'><img src=https://realitybending.github.io/IllusionGameSelfAssociation/experiment/SelfAssociation/stimuli/triangle.png height=20%></img></div><div  style='font-size:500%; position:fixed; text-align: center; top:50%; bottom:50%; right:20%; left:20%'>+</div><div style = ""font-size:300%; text-align: center; position:fixed; top:70%; right:20%; left:20%""><b>You</div>","e","","","","","","","triangle","28","match","mismatch","false","","Self","1","","","","","","","","","","",""
"","sat_feedback","","html-keyboard-response","158","345977","0.0-22.0-2.27","Beyonce","Gloria","","","","","","","","","","","","","","","","","","","","","null","<p style = 'font-size: 300%; color:red'>Incorrect!</p>","null","","","","","","","","","","","","","","","","","","","","","","","","",""
"","sat_fixationcross","","html-keyboard-response","159","346478","0.0-22.0-0.28","Beyonce","Gloria","","","","","","","","","","","","","","","","","","","","","null","<div  style='font-size:500%; position:fixed; text-align: center; top:50%; bottom:50%; right:20%; left:20%'>+</div>","null","","","","","","500","","","","","","","","","","","","","","","","","","",""
"","sat_trial","","html-keyboard-response","160","347355","0.0-22.0-1.28","Beyonce","Gloria","","","","","","","","","","","","","","","","","","","","","875","<div style='bottom:60%; right:20%; left:20%; position:fixed'><img src=https://realitybending.github.io/IllusionGameSelfAssociation/experiment/SelfAssociation/stimuli/circle.png height=20%></img></div><div  style='font-size:500%; position:fixed; text-align: center; top:50%; bottom:50%; right:20%; left:20%'>+</div><div style = ""font-size:300%; text-align: center; position:fixed; top:70%; right:20%; left:20%""><b>Gloria</div>","i","","","","","","","circle","29","mismatch","mismatch","true","","Friend","1","","","","","","","","","","",""
"","sat_feedback","","html-keyboard-response","161","347856","0.0-22.0-2.28","Beyonce","Gloria","","","","","","","","","","","","","","","","","","","","","null","<p style = 'font-size: 300%; color:green'>Correct!</p>","null","","","","","","","","","","","","","","","","","","","","","","","","",""
"","sat_fixationcross","","html-keyboard-response","162","348358","0.0-22.0-0.29","Beyonce","Gloria","","","","","","","","","","","","","","","","","","","","","null","<div  style='font-size:500%; position:fixed; text-align: center; top:50%; bottom:50%; right:20%; left:20%'>+</div>","null","","","","","","500","","","","","","","","","","","","","","","","","","",""
"","sat_trial","","html-keyboard-response","163","349567","0.0-22.0-1.29","Beyonce","Gloria","","","","","","","","","","","","","","","","","","","","","1207","<div style='bottom:60%; right:20%; left:20%; position:fixed'><img src=https://realitybending.github.io/IllusionGameSelfAssociation/experiment/SelfAssociation/stimuli/square.png height=20%></img></div><div  style='font-size:500%; position:fixed; text-align: center; top:50%; bottom:50%; right:20%; left:20%'>+</div><div style = ""font-size:300%; text-align: center; position:fixed; top:70%; right:20%; left:20%""><b>Beyonce</div>","i","","","","","","","square","30","mismatch","mismatch","true","","Stranger","1","","","","","","","","","","",""
"","sat_feedback","","html-keyboard-response","164","350068","0.0-22.0-2.29","Beyonce","Gloria","","","","","","","","","","","","","","","","","","","","","null","<p style = 'font-size: 300%; color:green'>Correct!</p>","null","","","","","","","","","","","","","","","","","","","","","","","","",""
"","sat_fixationcross","","html-keyboard-response","165","350570","0.0-22.0-0.30","Beyonce","Gloria","","","","","","","","","","","","","","","","","","","","","null","<div  style='font-size:500%; position:fixed; text-align: center; top:50%; bottom:50%; right:20%; left:20%'>+</div>","null","","","","","","500","","","","","","","","","","","","","","","","","","",""
"","sat_trial","","html-keyboard-response","166","351484","0.0-22.0-1.30","Beyonce","Gloria","","","","","","","","","","","","","","","","","","","","","914","<div style='bottom:60%; right:20%; left:20%; position:fixed'><img src=https://realitybending.github.io/IllusionGameSelfAssociation/experiment/SelfAssociation/stimuli/triangle.png height=20%></img></div><div  style='font-size:500%; position:fixed; text-align: center; top:50%; bottom:50%; right:20%; left:20%'>+</div><div style = ""font-size:300%; text-align: center; position:fixed; top:70%; right:20%; left:20%""><b>You</div>","i","","","","","","","triangle","31","mismatch","mismatch","true","","Self","1","","","","","","","","","","",""
"","sat_feedback","","html-keyboard-response","167","351986","0.0-22.0-2.30","Beyonce","Gloria","","","","","","","","","","","","","","","","","","","","","null","<p style = 'font-size: 300%; color:green'>Correct!</p>","null","","","","","","","","","","","","","","","","","","","","","","","","",""
"","sat_fixationcross","","html-keyboard-response","168","352488","0.0-22.0-0.31","Beyonce","Gloria","","","","","","","","","","","","","","","","","","","","","null","<div  style='font-size:500%; position:fixed; text-align: center; top:50%; bottom:50%; right:20%; left:20%'>+</div>","null","","","","","","500","","","","","","","","","","","","","","","","","","",""
"","sat_trial","","html-keyboard-response","169","353407","0.0-22.0-1.31","Beyonce","Gloria","","","","","","","","","","","","","","","","","","","","","918","<div style='bottom:60%; right:20%; left:20%; position:fixed'><img src=https://realitybending.github.io/IllusionGameSelfAssociation/experiment/SelfAssociation/stimuli/square.png height=20%></img></div><div  style='font-size:500%; position:fixed; text-align: center; top:50%; bottom:50%; right:20%; left:20%'>+</div><div style = ""font-size:300%; text-align: center; position:fixed; top:70%; right:20%; left:20%""><b>You</div>","i","","","","","","","square","32","mismatch","mismatch","true","","Self","1","","","","","","","","","","",""
"","sat_feedback","","html-keyboard-response","170","353909","0.0-22.0-2.31","Beyonce","Gloria","","","","","","","","","","","","","","","","","","","","","null","<p style = 'font-size: 300%; color:green'>Correct!</p>","null","","","","","","","","","","","","","","","","","","","","","","","","",""
"","sat_fixationcross","","html-keyboard-response","171","354410","0.0-22.0-0.32","Beyonce","Gloria","","","","","","","","","","","","","","","","","","","","","null","<div  style='font-size:500%; position:fixed; text-align: center; top:50%; bottom:50%; right:20%; left:20%'>+</div>","null","","","","","","500","","","","","","","","","","","","","","","","","","",""
"","sat_trial","","html-keyboard-response","172","355366","0.0-22.0-1.32","Beyonce","Gloria","","","","","","","","","","","","","","","","","","","","","955","<div style='bottom:60%; right:20%; left:20%; position:fixed'><img src=https://realitybending.github.io/IllusionGameSelfAssociation/experiment/SelfAssociation/stimuli/triangle.png height=20%></img></div><div  style='font-size:500%; position:fixed; text-align: center; top:50%; bottom:50%; right:20%; left:20%'>+</div><div style = ""font-size:300%; text-align: center; position:fixed; top:70%; right:20%; left:20%""><b>You</div>","i","","","","","","","triangle","33","mismatch","mismatch","true","","Self","1","","","","","","","","","","",""
"","sat_feedback","","html-keyboard-response","173","355869","0.0-22.0-2.32","Beyonce","Gloria","","","","","","","","","","","","","","","","","","","","","null","<p style = 'font-size: 300%; color:green'>Correct!</p>","null","","","","","","","","","","","","","","","","","","","","","","","","",""
"","sat_fixationcross","","html-keyboard-response","174","356370","0.0-22.0-0.33","Beyonce","Gloria","","","","","","","","","","","","","","","","","","","","","null","<div  style='font-size:500%; position:fixed; text-align: center; top:50%; bottom:50%; right:20%; left:20%'>+</div>","null","","","","","","500","","","","","","","","","","","","","","","","","","",""
"","sat_trial","","html-keyboard-response","175","357277","0.0-22.0-1.33","Beyonce","Gloria","","","","","","","","","","","","","","","","","","","","","905","<div style='bottom:60%; right:20%; left:20%; position:fixed'><img src=https://realitybending.github.io/IllusionGameSelfAssociation/experiment/SelfAssociation/stimuli/square.png height=20%></img></div><div  style='font-size:500%; position:fixed; text-align: center; top:50%; bottom:50%; right:20%; left:20%'>+</div><div style = ""font-size:300%; text-align: center; position:fixed; top:70%; right:20%; left:20%""><b>Beyonce</div>","i","","","","","","","square","34","mismatch","mismatch","true","","Stranger","1","","","","","","","","","","",""
"","sat_feedback","","html-keyboard-response","176","357779","0.0-22.0-2.33","Beyonce","Gloria","","","","","","","","","","","","","","","","","","","","","null","<p style = 'font-size: 300%; color:green'>Correct!</p>","null","","","","","","","","","","","","","","","","","","","","","","","","",""
"","sat_fixationcross","","html-keyboard-response","177","358280","0.0-22.0-0.34","Beyonce","Gloria","","","","","","","","","","","","","","","","","","","","","null","<div  style='font-size:500%; position:fixed; text-align: center; top:50%; bottom:50%; right:20%; left:20%'>+</div>","null","","","","","","500","","","","","","","","","","","","","","","","","","",""
"","sat_trial","","html-keyboard-response","178","359157","0.0-22.0-1.34","Beyonce","Gloria","","","","","","","","","","","","","","","","","","","","","876","<div style='bottom:60%; right:20%; left:20%; position:fixed'><img src=https://realitybending.github.io/IllusionGameSelfAssociation/experiment/SelfAssociation/stimuli/circle.png height=20%></img></div><div  style='font-size:500%; position:fixed; text-align: center; top:50%; bottom:50%; right:20%; left:20%'>+</div><div style = ""font-size:300%; text-align: center; position:fixed; top:70%; right:20%; left:20%""><b>You</div>","e","","","","","","","circle","35","match","match","true","","Self","1","","","","","","","","","","",""
"","sat_feedback","","html-keyboard-response","179","359659","0.0-22.0-2.34","Beyonce","Gloria","","","","","","","","","","","","","","","","","","","","","null","<p style = 'font-size: 300%; color:green'>Correct!</p>","null","","","","","","","","","","","","","","","","","","","","","","","","",""
"","sat_fixationcross","","html-keyboard-response","180","360160","0.0-22.0-0.35","Beyonce","Gloria","","","","","","","","","","","","","","","","","","","","","null","<div  style='font-size:500%; position:fixed; text-align: center; top:50%; bottom:50%; right:20%; left:20%'>+</div>","null","","","","","","500","","","","","","","","","","","","","","","","","","",""
"","sat_trial","","html-keyboard-response","181","361020","0.0-22.0-1.35","Beyonce","Gloria","","","","","","","","","","","","","","","","","","","","","859","<div style='bottom:60%; right:20%; left:20%; position:fixed'><img src=https://realitybending.github.io/IllusionGameSelfAssociation/experiment/SelfAssociation/stimuli/circle.png height=20%></img></div><div  style='font-size:500%; position:fixed; text-align: center; top:50%; bottom:50%; right:20%; left:20%'>+</div><div style = ""font-size:300%; text-align: center; position:fixed; top:70%; right:20%; left:20%""><b>You</div>","e","","","","","","","circle","36","match","match","true","","Self","1","","","","","","","","","","",""
"","sat_feedback","","html-keyboard-response","182","361522","0.0-22.0-2.35","Beyonce","Gloria","","","","","","","","","","","","","","","","","","","","","null","<p style = 'font-size: 300%; color:green'>Correct!</p>","null","","","","","","","","","","","","","","","","","","","","","","","","",""
"","sat_fixationcross","","html-keyboard-response","183","362024","0.0-22.0-0.36","Beyonce","Gloria","","","","","","","","","","","","","","","","","","","","","null","<div  style='font-size:500%; position:fixed; text-align: center; top:50%; bottom:50%; right:20%; left:20%'>+</div>","null","","","","","","500","","","","","","","","","","","","","","","","","","",""
"","sat_trial","","html-keyboard-response","184","362857","0.0-22.0-1.36","Beyonce","Gloria","","","","","","","","","","","","","","","","","","","","","833","<div style='bottom:60%; right:20%; left:20%; position:fixed'><img src=https://realitybending.github.io/IllusionGameSelfAssociation/experiment/SelfAssociation/stimuli/circle.png height=20%></img></div><div  style='font-size:500%; position:fixed; text-align: center; top:50%; bottom:50%; right:20%; left:20%'>+</div><div style = ""font-size:300%; text-align: center; position:fixed; top:70%; right:20%; left:20%""><b>Beyonce</div>","i","","","","","","","circle","37","mismatch","mismatch","true","","Stranger","1","","","","","","","","","","",""
"","sat_feedback","","html-keyboard-response","185","363359","0.0-22.0-2.36","Beyonce","Gloria","","","","","","","","","","","","","","","","","","","","","null","<p style = 'font-size: 300%; color:green'>Correct!</p>","null","","","","","","","","","","","","","","","","","","","","","","","","",""
"","sat_fixationcross","","html-keyboard-response","186","363861","0.0-22.0-0.37","Beyonce","Gloria","","","","","","","","","","","","","","","","","","","","","null","<div  style='font-size:500%; position:fixed; text-align: center; top:50%; bottom:50%; right:20%; left:20%'>+</div>","null","","","","","","500","","","","","","","","","","","","","","","","","","",""
"","sat_trial","","html-keyboard-response","187","364568","0.0-22.0-1.37","Beyonce","Gloria","","","","","","","","","","","","","","","","","","","","","706","<div style='bottom:60%; right:20%; left:20%; position:fixed'><img src=https://realitybending.github.io/IllusionGameSelfAssociation/experiment/SelfAssociation/stimuli/circle.png height=20%></img></div><div  style='font-size:500%; position:fixed; text-align: center; top:50%; bottom:50%; right:20%; left:20%'>+</div><div style = ""font-size:300%; text-align: center; position:fixed; top:70%; right:20%; left:20%""><b>You</div>","e","","","","","","","circle","38","match","match","true","","Self","1","","","","","","","","","","",""
"","sat_feedback","","html-keyboard-response","188","365070","0.0-22.0-2.37","Beyonce","Gloria","","","","","","","","","","","","","","","","","","","","","null","<p style = 'font-size: 300%; color:green'>Correct!</p>","null","","","","","","","","","","","","","","","","","","","","","","","","",""
"","sat_fixationcross","","html-keyboard-response","189","365572","0.0-22.0-0.38","Beyonce","Gloria","","","","","","","","","","","","","","","","","","","","","null","<div  style='font-size:500%; position:fixed; text-align: center; top:50%; bottom:50%; right:20%; left:20%'>+</div>","null","","","","","","500","","","","","","","","","","","","","","","","","","",""
"","sat_trial","","html-keyboard-response","190","366591","0.0-22.0-1.38","Beyonce","Gloria","","","","","","","","","","","","","","","","","","","","","1018","<div style='bottom:60%; right:20%; left:20%; position:fixed'><img src=https://realitybending.github.io/IllusionGameSelfAssociation/experiment/SelfAssociation/stimuli/square.png height=20%></img></div><div  style='font-size:500%; position:fixed; text-align: center; top:50%; bottom:50%; right:20%; left:20%'>+</div><div style = ""font-size:300%; text-align: center; position:fixed; top:70%; right:20%; left:20%""><b>Beyonce</div>","i","","","","","","","square","39","mismatch","mismatch","true","","Stranger","1","","","","","","","","","","",""
"","sat_feedback","","html-keyboard-response","191","367092","0.0-22.0-2.38","Beyonce","Gloria","","","","","","","","","","","","","","","","","","","","","null","<p style = 'font-size: 300%; color:green'>Correct!</p>","null","","","","","","","","","","","","","","","","","","","","","","","","",""
"","sat_fixationcross","","html-keyboard-response","192","367594","0.0-22.0-0.39","Beyonce","Gloria","","","","","","","","","","","","","","","","","","","","","null","<div  style='font-size:500%; position:fixed; text-align: center; top:50%; bottom:50%; right:20%; left:20%'>+</div>","null","","","","","","500","","","","","","","","","","","","","","","","","","",""
"","sat_trial","","html-keyboard-response","193","368319","0.0-22.0-1.39","Beyonce","Gloria","","","","","","","","","","","","","","","","","","","","","724","<div style='bottom:60%; right:20%; left:20%; position:fixed'><img src=https://realitybending.github.io/IllusionGameSelfAssociation/experiment/SelfAssociation/stimuli/square.png height=20%></img></div><div  style='font-size:500%; position:fixed; text-align: center; top:50%; bottom:50%; right:20%; left:20%'>+</div><div style = ""font-size:300%; text-align: center; position:fixed; top:70%; right:20%; left:20%""><b>Gloria</div>","i","","","","","","","square","40","mismatch","match","false","","Friend","1","","","","","","","","","","",""
"","sat_feedback","","html-keyboard-response","194","368821","0.0-22.0-2.39","Beyonce","Gloria","","","","","","","","","","","","","","","","","","","","","null","<p style = 'font-size: 300%; color:red'>Incorrect!</p>","null","","","","","","","","","","","","","","","","","","","","","","","","",""
"","sat_fixationcross","","html-keyboard-response","195","369323","0.0-22.0-0.40","Beyonce","Gloria","","","","","","","","","","","","","","","","","","","","","null","<div  style='font-size:500%; position:fixed; text-align: center; top:50%; bottom:50%; right:20%; left:20%'>+</div>","null","","","","","","500","","","","","","","","","","","","","","","","","","",""
"","sat_trial","","html-keyboard-response","196","370041","0.0-22.0-1.40","Beyonce","Gloria","","","","","","","","","","","","","","","","","","","","","717","<div style='bottom:60%; right:20%; left:20%; position:fixed'><img src=https://realitybending.github.io/IllusionGameSelfAssociation/experiment/SelfAssociation/stimuli/circle.png height=20%></img></div><div  style='font-size:500%; position:fixed; text-align: center; top:50%; bottom:50%; right:20%; left:20%'>+</div><div style = ""font-size:300%; text-align: center; position:fixed; top:70%; right:20%; left:20%""><b>You</div>","e","","","","","","","circle","41","match","match","true","","Self","1","","","","","","","","","","",""
"","sat_feedback","","html-keyboard-response","197","370543","0.0-22.0-2.40","Beyonce","Gloria","","","","","","","","","","","","","","","","","","","","","null","<p style = 'font-size: 300%; color:green'>Correct!</p>","null","","","","","","","","","","","","","","","","","","","","","","","","",""
"","sat_fixationcross","","html-keyboard-response","198","371045","0.0-22.0-0.41","Beyonce","Gloria","","","","","","","","","","","","","","","","","","","","","null","<div  style='font-size:500%; position:fixed; text-align: center; top:50%; bottom:50%; right:20%; left:20%'>+</div>","null","","","","","","500","","","","","","","","","","","","","","","","","","",""
"","sat_trial","","html-keyboard-response","199","371913","0.0-22.0-1.41","Beyonce","Gloria","","","","","","","","","","","","","","","","","","","","","866","<div style='bottom:60%; right:20%; left:20%; position:fixed'><img src=https://realitybending.github.io/IllusionGameSelfAssociation/experiment/SelfAssociation/stimuli/circle.png height=20%></img></div><div  style='font-size:500%; position:fixed; text-align: center; top:50%; bottom:50%; right:20%; left:20%'>+</div><div style = ""font-size:300%; text-align: center; position:fixed; top:70%; right:20%; left:20%""><b>Gloria</div>","i","","","","","","","circle","42","mismatch","mismatch","true","","Friend","1","","","","","","","","","","",""
"","sat_feedback","","html-keyboard-response","200","372414","0.0-22.0-2.41","Beyonce","Gloria","","","","","","","","","","","","","","","","","","","","","null","<p style = 'font-size: 300%; color:green'>Correct!</p>","null","","","","","","","","","","","","","","","","","","","","","","","","",""
"","sat_fixationcross","","html-keyboard-response","201","372915","0.0-22.0-0.42","Beyonce","Gloria","","","","","","","","","","","","","","","","","","","","","null","<div  style='font-size:500%; position:fixed; text-align: center; top:50%; bottom:50%; right:20%; left:20%'>+</div>","null","","","","","","500","","","","","","","","","","","","","","","","","","",""
"","sat_trial","","html-keyboard-response","202","373966","0.0-22.0-1.42","Beyonce","Gloria","","","","","","","","","","","","","","","","","","","","","1050","<div style='bottom:60%; right:20%; left:20%; position:fixed'><img src=https://realitybending.github.io/IllusionGameSelfAssociation/experiment/SelfAssociation/stimuli/triangle.png height=20%></img></div><div  style='font-size:500%; position:fixed; text-align: center; top:50%; bottom:50%; right:20%; left:20%'>+</div><div style = ""font-size:300%; text-align: center; position:fixed; top:70%; right:20%; left:20%""><b>Beyonce</div>","e","","","","","","","triangle","43","match","match","true","","Stranger","1","","","","","","","","","","",""
