"success","screen","group","trial_type","trial_index","time_elapsed","internal_node_id","width","height","webaudio","browser","browser_version","mobile","os","fullscreen","webcam","microphone","vsync_rate","date","time","screen_height","screen_width","researcher","sona_id","prolific_id","study_id","session_id","rt","stimulus","response","question_order","timeout","failed_images","failed_audio","failed_video","trial_duration","file","block","correct_response","Illusion_Type","Illusion_Strength","Illusion_Difference","isi","fixation_cross","correct","type","illusion_strength","illusion_difference","block_number","trial_number"
"true","fullscreen","psychedelic_society","fullscreen","0","3248","0.0-0.0","","","","","","","","","","","","","","","","","","","","","","","","","","","","","","","","","","","","","","","","","","",""
"","browser_info","","browser-check","1","3277","0.0-1.0","2530","1175","true","chrome","122.0.0","false","Mac OS","true","true","true","60","22/03/2024","15:47:52","1175","2530","","","","","","","","","","","","","","","","","","","","","","","","","","","",""
"","consent","","html-button-response","2","4958","0.0-2.0","","","","","","","","","","","","","","","","","","","","","1679","<img src='https://u-paris.fr/wp-content/uploads/2022/03/Universite_Paris-Cite-logo.jpeg' width='300px' align='right'/><br><br><br><br><br><h1>Consentement éclairé</h1><p align='left'>Dans cette étude, vous allez devoir compléter deux tâches sous forme de jeux pour mesurer (i) <b>vos capacités d'associations</b> et (ii) votre <b>sensibilité aux illusions visuelles</b>.</p><p align='left'>Vous aurez aussi à compléter trois questionnaires à propos de (i) <b>votre fonctionnement psychologique</b> et (ii) votre <b>dernière expérience avec une substance psychédélique classique</b>.</p><p align='left'>L'étude dure environ 40 minutes au total. Nous vous demandons de veiller à bien rester concentré et à fournir des réponses authentiques.</p><p align='left'>Votre participation à cette recherche est confidentielle. <b>Vos réponses seront totalement anonymisées</b>, et votre adresse IP ni aucune autres informations identifiantes ne sont collectées.</p><p align='left'>Vos données sont essentielles pour nous. Elles contribuent aux avancées scientifiques sur les thérapies-assistées par psychédéliques. <b>En participant, vous acceptez de suivre les instructions et de fournir des réponses honnêtes.</b> Si vous ne souhaitez pas participer à cette étude, vous pouvez simplement fermer votre navigateur.</p><p align='left'>Vous avez également le droit de vous retirer de l'étude à n'importe quel moment, pour cela, vous pouvez simplement fermer votre navigateur web.</p><p align='left'><br><sub><sup>Si vous avez des questions sur le projets, veuillez contacter Baptiste Fauvel (baptiste.fauvel@u-paris.fr). Cette étude a été expertisée et validée par le comité d'éthique de l'université de Paris.</sup></sub></p>","0","","","","","","","","","","","","","","","","","","","",""
"","demographics_1","","survey-multi-choice","3","9301","0.0-3.0-0.0","","","","","","","","","","","","","","","","","","","","","4342","","{""sex"":""Femme"",""student"":"""",""education"":"""",""language"":""""}","[0,1,2,3]","","","","","","","","","","","","","","","","","","",""
"","demographics_2","","survey-text","4","15634","0.0-3.0-1.0","","","","","","","","","","","","","","","","","","","","","6330","","{""age"":""22""}","","","","","","","","","","","","","","","","","","","",""
"","","","html-button-response","5","18694","0.0-4.0","","","","","","","","","","","","","","","","","","","","","3059","<p style=""font-size:18px; color:black;"">Avez-vous <b>déjà</b> été diagnostiqué pour une des pathologies suivantes ?</p>","1","","","","","","","","","","","","","","","","","","","",""
"","","","html-button-response","6","20483","0.0-6.0","","","","","","","","","","","","","","","","","","","","","1788","<p style=""font-size:18px; color:black;"">Etes-vous <b>en ce moment</b> diagnostiqué pour une des pathologies suivantes?</p>","1","","","","","","","","","","","","","","","","","","","",""
"","","","html-button-response","7","23272","0.0-8.0","","","","","","","","","","","","","","","","","","","","","2789","<p style=""font-size:18px; color:black;"">Méditez-vous régulièrement? E.g. au moins une fois par semaine</p>","1","","","","","","","","","","","","","","","","","","","",""
"","","","survey-multi-choice","8","25771","0.0-10.0-0.0","","","","","","","","","","","","","","","","","","","","","2497","","{""psych_freq"":""Entre 2 et 5 fois""}","[0]","","","","","","","","","","","","","","","","","","",""
"","","","html-button-response","9","27075","0.0-10.0-1.0","","","","","","","","","","","","","","","","","","","","","1302","<p style=""font-size:18px; color:black;"">Avez-vous consommé une substance psychédélique classique (e.g., LSD, champignons à psilocybe, ayahuasca) au cours du derniers mois ?</p>","1","","","","","","","","","","","","","","","","","","","",""
"","","","survey-text","10","30732","0.0-10.0-2.0","","","","","","","","","","","","","","","","","","","","","3655","","{""Q0"":""22""}","","","","","","","","","","","","","","","","","","","",""
"","","","survey-multi-choice","11","51949","0.0-10.0-3.0","","","","","","","","","","","","","","","","","","","","","21216","","{""intention"":""Curiosité"",""substance"":""Psilocybine/champignons/truffes"",""dose"":""Très faible""}","[0,1,2]","","","","","","","","","","","","","","","","","","",""
"","","","survey-multi-choice","12","60567","0.0-10.0-4.0","","","","","","","","","","","","","","","","","","","","","8615","","{""cannabis"":""Incertain"",""Alcool"":""Non"",""stimulants"":""Incertain"",""MDMA"":""Non"",""Opiacés"":""Oui"",""Dissociatifs"":""Oui""}","[0,1,2,3,4,5]","","","","","","","","","","","","","","","","","","",""
"","IG_instructions","","html-button-response","13","61579","0.0-11.0-0.0","","","","","","","","","","","","","","","","","","","","","1010","<h1>Le jeux d'illusions</h1><p>Dans ce jeu de rapidité et de réflexe, vous allez devoir faire des <b>jugements visuels</b> (par exemple, quel cercle est le plus grand, ou quelle ligne est la plus longue), aussi rapidement et justement que possible, tout en <b>résistant à des illusions visuelles</b>.</p><p>Nous allons débuter avec quelques exemples de toutes les illusions que vous allez rencontrer dans le jeu.</p>","0","","","","","","","","","","","","","","","","","","","",""
"true","IG_Preload","","preload","14","67843","0.0-11.0-1.0-0.0","","","","","","","","","","","","","","","","","","","","","","","","","false","[]","[]","[]","","","","","","","","","","","","","","",""
"","IG_Instructions","","html-keyboard-response","15","70749","0.0-11.0-1.0-1.0","","","","","","","","","","","","","","","","","","","","","2905","<p><b>Entraînement</b></p><p>Dans cette partie, deux cercles rouges vont apparaître côte à côte à l'écran.</p><p>Vous devez sélectionner quel <b>cercle rouge est plus grand</b> aussi rapidement que possible et sans faire d'erreurs.</p><p>Ne soyez pas distraits par les cercles noirs autour des cercles rouges!</p><p>Appuyez sur <b>la flèche GAUCHE ou DROITE</b> pour indiquer quel est le plus grand <b>cercle rouge</b>.</p><div style='float: center'><img src='https://realitybending.github.io/IllusionGame/v3//images/Ebbinghaus_Demo.png' height='200'></img><p><img src='https://realitybending.github.io/IllusionGame/v3//images/answer_leftright_keyboard.PNG' height='100'></img></p><p class='small'>Dans cet exemple, la réponse correcte est la <b>flèche GAUCHE</b>.</p></div><p>Êtes-vous prêt? <b>Appuyer sur la touche ENTRÉE pour démarrer</b></p>","enter","","","","","","","","","","","","","","","","","","","",""
"","IG_FixationCross","","html-keyboard-response","16","71880","0.0-11.0-1.0-2.0-0.0","","","","","","","","","","","","","","","","","","","","","null","<p style=""color: black; font-size: 80px; padding-left: 29%; padding-right: 21%; padding-top: 50%; padding-bottom: 4%"">+</p>","null","","","","","","628","","","","","","","","","","","","","",""
"","IG_Trial","","image-keyboard-response","17","72290","0.0-11.0-1.0-2.0-1.0","","","","","","","","","","","","","","","","","","","","","404","https://realitybending.github.io/IllusionGame/v3/stimuli/Ebbinghaus_-1.0000_1.40000.png","arrowleft","","","","","","","Ebbinghaus_-1.0000_1.40000.png","Practice","arrowleft","Ebbinghaus","-1.000000000","1.4000000000","71880","<p style=""color: black; font-size: 80px; padding-left: 29%; padding-right: 21%; padding-top: 50%; padding-bottom: 4%"">+</p>","true","Ebbinghaus","function () {
            return jsPsych.timelineVariable(""Illusion_Strength"")
        }","function () {
            return jsPsych.timelineVariable(""Difference"")
        }","1","1"
"","IG_FixationCross","","html-keyboard-response","18","73072","0.0-11.0-1.0-2.0-0.1","","","","","","","","","","","","","","","","","","","","","null","<p style=""color: black; font-size: 80px; padding-left: 38%; padding-right: 28%; padding-top: 34%; padding-bottom: 47%"">+</p>","null","","","","","","780","","","","","","","","","","","","","",""
"","IG_Trial","","image-keyboard-response","19","73572","0.0-11.0-1.0-2.0-1.1","","","","","","","","","","","","","","","","","","","","","499","https://realitybending.github.io/IllusionGame/v3/stimuli/Ebbinghaus_-0.1500_1.40000.png","arrowleft","","","","","","","Ebbinghaus_-0.1500_1.40000.png","Practice","arrowleft","Ebbinghaus","-0.150000000","1.4000000000","73072","<p style=""color: black; font-size: 80px; padding-left: 38%; padding-right: 28%; padding-top: 34%; padding-bottom: 47%"">+</p>","true","Ebbinghaus","function () {
            return jsPsych.timelineVariable(""Illusion_Strength"")
        }","function () {
            return jsPsych.timelineVariable(""Difference"")
        }","1","2"
"","IG_FixationCross","","html-keyboard-response","20","74264","0.0-11.0-1.0-2.0-0.2","","","","","","","","","","","","","","","","","","","","","null","<p style=""color: black; font-size: 80px; padding-left: 48%; padding-right: 45%; padding-top: 7%; padding-bottom: 10%"">+</p>","null","","","","","","690","","","","","","","","","","","","","",""
"","IG_Trial","","image-keyboard-response","21","74652","0.0-11.0-1.0-2.0-1.2","","","","","","","","","","","","","","","","","","","","","388","https://realitybending.github.io/IllusionGame/v3/stimuli/Ebbinghaus_-1.0000_-1.4000.png","arrowright","","","","","","","Ebbinghaus_-1.0000_-1.4000.png","Practice","arrowright","Ebbinghaus","-1.000000000","-1.400000000","74264","<p style=""color: black; font-size: 80px; padding-left: 48%; padding-right: 45%; padding-top: 7%; padding-bottom: 10%"">+</p>","true","Ebbinghaus","function () {
            return jsPsych.timelineVariable(""Illusion_Strength"")
        }","function () {
            return jsPsych.timelineVariable(""Difference"")
        }","1","3"
"","IG_FixationCross","","html-keyboard-response","22","75584","0.0-11.0-1.0-2.0-0.3","","","","","","","","","","","","","","","","","","","","","null","<p style=""color: black; font-size: 80px; padding-left: 5%; padding-right: 6%; padding-top: 16%; padding-bottom: 28%"">+</p>","null","","","","","","930","","","","","","","","","","","","","",""
"","IG_Trial","","image-keyboard-response","23","75946","0.0-11.0-1.0-2.0-1.3","","","","","","","","","","","","","","","","","","","","","361","https://realitybending.github.io/IllusionGame/v3/stimuli/Ebbinghaus_1.00000_-1.4000.png","arrowright","","","","","","","Ebbinghaus_1.00000_-1.4000.png","Practice","arrowright","Ebbinghaus","1.0000000000","-1.400000000","75584","<p style=""color: black; font-size: 80px; padding-left: 5%; padding-right: 6%; padding-top: 16%; padding-bottom: 28%"">+</p>","true","Ebbinghaus","function () {
            return jsPsych.timelineVariable(""Illusion_Strength"")
        }","function () {
            return jsPsych.timelineVariable(""Difference"")
        }","1","4"
"","IG_FixationCross","","html-keyboard-response","24","77039","0.0-11.0-1.0-2.0-0.4","","","","","","","","","","","","","","","","","","","","","null","<p style=""color: black; font-size: 80px; padding-left: 29%; padding-right: 6%; padding-top: 32%; padding-bottom: 41%"">+</p>","null","","","","","","1091","","","","","","","","","","","","","",""
"","IG_Trial","","image-keyboard-response","25","77509","0.0-11.0-1.0-2.0-1.4","","","","","","","","","","","","","","","","","","","","","470","https://realitybending.github.io/IllusionGame/v3/stimuli/Ebbinghaus_-0.1500_-1.4000.png","arrowright","","","","","","","Ebbinghaus_-0.1500_-1.4000.png","Practice","arrowright","Ebbinghaus","-0.150000000","-1.400000000","77039","<p style=""color: black; font-size: 80px; padding-left: 29%; padding-right: 6%; padding-top: 32%; padding-bottom: 41%"">+</p>","true","Ebbinghaus","function () {
            return jsPsych.timelineVariable(""Illusion_Strength"")
        }","function () {
            return jsPsych.timelineVariable(""Difference"")
        }","1","5"
"","IG_FixationCross","","html-keyboard-response","26","78521","0.0-11.0-1.0-2.0-0.5","","","","","","","","","","","","","","","","","","","","","null","<p style=""color: black; font-size: 80px; padding-left: 36%; padding-right: 25%; padding-top: 36%; padding-bottom: 26%"">+</p>","null","","","","","","1009","","","","","","","","","","","","","",""
"","IG_Trial","","image-keyboard-response","27","78882","0.0-11.0-1.0-2.0-1.5","","","","","","","","","","","","","","","","","","","","","360","https://realitybending.github.io/IllusionGame/v3/stimuli/Ebbinghaus_0.15000_1.40000.png","arrowleft","","","","","","","Ebbinghaus_0.15000_1.40000.png","Practice","arrowleft","Ebbinghaus","0.1500000000","1.4000000000","78521","<p style=""color: black; font-size: 80px; padding-left: 36%; padding-right: 25%; padding-top: 36%; padding-bottom: 26%"">+</p>","true","Ebbinghaus","function () {
            return jsPsych.timelineVariable(""Illusion_Strength"")
        }","function () {
            return jsPsych.timelineVariable(""Difference"")
        }","1","6"
"","IG_FixationCross","","html-keyboard-response","28","79627","0.0-11.0-1.0-2.0-0.6","","","","","","","","","","","","","","","","","","","","","null","<p style=""color: black; font-size: 80px; padding-left: 3%; padding-right: 16%; padding-top: 43%; padding-bottom: 15%"">+</p>","null","","","","","","743","","","","","","","","","","","","","",""
"","IG_Trial","","image-keyboard-response","29","80030","0.0-11.0-1.0-2.0-1.6","","","","","","","","","","","","","","","","","","","","","402","https://realitybending.github.io/IllusionGame/v3/stimuli/Ebbinghaus_1.00000_1.40000.png","arrowleft","","","","","","","Ebbinghaus_1.00000_1.40000.png","Practice","arrowleft","Ebbinghaus","1.0000000000","1.4000000000","79627","<p style=""color: black; font-size: 80px; padding-left: 3%; padding-right: 16%; padding-top: 43%; padding-bottom: 15%"">+</p>","true","Ebbinghaus","function () {
            return jsPsych.timelineVariable(""Illusion_Strength"")
        }","function () {
            return jsPsych.timelineVariable(""Difference"")
        }","1","7"
"","IG_FixationCross","","html-keyboard-response","30","80960","0.0-11.0-1.0-2.0-0.7","","","","","","","","","","","","","","","","","","","","","null","<p style=""color: black; font-size: 80px; padding-left: 12%; padding-right: 32%; padding-top: 33%; padding-bottom: 15%"">+</p>","null","","","","","","929","","","","","","","","","","","","","",""
"","IG_Trial","","image-keyboard-response","31","81301","0.0-11.0-1.0-2.0-1.7","","","","","","","","","","","","","","","","","","","","","341","https://realitybending.github.io/IllusionGame/v3/stimuli/Ebbinghaus_0.15000_-1.4000.png","arrowright","","","","","","","Ebbinghaus_0.15000_-1.4000.png","Practice","arrowright","Ebbinghaus","0.1500000000","-1.400000000","80960","<p style=""color: black; font-size: 80px; padding-left: 12%; padding-right: 32%; padding-top: 33%; padding-bottom: 15%"">+</p>","true","Ebbinghaus","function () {
            return jsPsych.timelineVariable(""Illusion_Strength"")
        }","function () {
            return jsPsych.timelineVariable(""Difference"")
        }","1","8"
"","IG_PracticeResults","","html-button-response","32","83595","0.0-11.0-1.0-3.0","","","","","","","","","","","","","","","","","","","","","2293","<p style='color:rgb(76,175,80);'>Réponses correctes:<b>100.00%</b></p><hr><p style='color:rgb(139, 195, 74);'>Temps de réaction:<b>403.13</b> ms.</p>","0","","","","","","","","","","","","","","","","","","","",""
"true","IG_Preload","","preload","33","84256","0.0-11.0-2.0-0.0","","","","","","","","","","","","","","","","","","","","","","","","","false","[]","[]","[]","","","","","","","","","","","","","","",""
"","IG_Instructions","","html-keyboard-response","34","84642","0.0-11.0-2.0-1.0","","","","","","","","","","","","","","","","","","","","","386","<p><b>Entraînement</b></p><p>Dans cette partie, deux lignes horizontales rouges vont apparaître l'une au dessus de l'autre.</p><p>Vous devez sélectionner quelle <b>ligne est la plus longue</b> aussi rapidement que vous pouvez sans faire d'erreurs.</p><p>Ne soyez pas distrait par les croix noires à la fin des lignes rouges!</p><p>Appuyez sur <b>la flèche HAUT ou BAS</b> pour indiquer où est la plus longue <b>ligne rouge</b>.</p><div style='float: center'><img src='https://realitybending.github.io/IllusionGame/v3//images/MullerLyer_Demo.png' height='200'></img><p><img src='https://realitybending.github.io/IllusionGame/v3//images/answer_updown_keyboard.PNG' height='100'></img></p><p class='small'Dans cet exemple, la réponse correcte est la <b>flèche HAUT</b>.</p></div><p>Êtes-vous prêt? <b>Appuyer sur la touche ENTRÉE pour démarrer</b></p>","enter","","","","","","","","","","","","","","","","","","","",""
"","IG_FixationCross","","html-keyboard-response","35","86136","0.0-11.0-2.0-2.0-0.0","","","","","","","","","","","","","","","","","","","","","null","<p style=""color: black; font-size: 80px; padding-left: 37%; padding-right: 48%; padding-top: 43%; padding-bottom: 26%"">+</p>","null","","","","","","991","","","","","","","","","","","","","",""
"","IG_Trial","","image-keyboard-response","36","86645","0.0-11.0-2.0-2.0-1.0","","","","","","","","","","","","","","","","","","","","","507","https://realitybending.github.io/IllusionGame/v3/stimuli/MullerLyer_3.00000_0.70000.png","arrowup","","","","","","","MullerLyer_3.00000_0.70000.png","Practice","arrowup","MullerLyer","3.0000000000","0.7000000000","86136","<p style=""color: black; font-size: 80px; padding-left: 37%; padding-right: 48%; padding-top: 43%; padding-bottom: 26%"">+</p>","true","MullerLyer","function () {
            return jsPsych.timelineVariable(""Illusion_Strength"")
        }","function () {
            return jsPsych.timelineVariable(""Difference"")
        }","1","9"
"","IG_FixationCross","","html-keyboard-response","37","87678","0.0-11.0-2.0-2.0-0.1","","","","","","","","","","","","","","","","","","","","","null","<p style=""color: black; font-size: 80px; padding-left: 11%; padding-right: 39%; padding-top: 44%; padding-bottom: 43%"">+</p>","null","","","","","","1031","","","","","","","","","","","","","",""
"","IG_Trial","","image-keyboard-response","38","88073","0.0-11.0-2.0-2.0-1.1","","","","","","","","","","","","","","","","","","","","","395","https://realitybending.github.io/IllusionGame/v3/stimuli/MullerLyer_3.00000_-0.7000.png","arrowdown","","","","","","","MullerLyer_3.00000_-0.7000.png","Practice","arrowdown","MullerLyer","3.0000000000","-0.700000000","87678","<p style=""color: black; font-size: 80px; padding-left: 11%; padding-right: 39%; padding-top: 44%; padding-bottom: 43%"">+</p>","true","MullerLyer","function () {
            return jsPsych.timelineVariable(""Illusion_Strength"")
        }","function () {
            return jsPsych.timelineVariable(""Difference"")
        }","1","10"
"","IG_FixationCross","","html-keyboard-response","39","88954","0.0-11.0-2.0-2.0-0.2","","","","","","","","","","","","","","","","","","","","","null","<p style=""color: black; font-size: 80px; padding-left: 45%; padding-right: 18%; padding-top: 21%; padding-bottom: 26%"">+</p>","null","","","","","","878","","","","","","","","","","","","","",""
"","IG_Trial","","image-keyboard-response","40","89457","0.0-11.0-2.0-2.0-1.2","","","","","","","","","","","","","","","","","","","","","503","https://realitybending.github.io/IllusionGame/v3/stimuli/MullerLyer_-23.000_-0.7000.png","arrowdown","","","","","","","MullerLyer_-23.000_-0.7000.png","Practice","arrowdown","MullerLyer","-23.00000000","-0.700000000","88954","<p style=""color: black; font-size: 80px; padding-left: 45%; padding-right: 18%; padding-top: 21%; padding-bottom: 26%"">+</p>","true","MullerLyer","function () {
            return jsPsych.timelineVariable(""Illusion_Strength"")
        }","function () {
            return jsPsych.timelineVariable(""Difference"")
        }","1","11"
"","IG_FixationCross","","html-keyboard-response","41","90498","0.0-11.0-2.0-2.0-0.3","","","","","","","","","","","","","","","","","","","","","null","<p style=""color: black; font-size: 80px; padding-left: 25%; padding-right: 33%; padding-top: 18%; padding-bottom: 44%"">+</p>","null","","","","","","1039","","","","","","","","","","","","","",""
"","IG_Trial","","image-keyboard-response","42","90909","0.0-11.0-2.0-2.0-1.3","","","","","","","","","","","","","","","","","","","","","410","https://realitybending.github.io/IllusionGame/v3/stimuli/MullerLyer_-3.0000_-0.7000.png","arrowdown","","","","","","","MullerLyer_-3.0000_-0.7000.png","Practice","arrowdown","MullerLyer","-3.000000000","-0.700000000","90498","<p style=""color: black; font-size: 80px; padding-left: 25%; padding-right: 33%; padding-top: 18%; padding-bottom: 44%"">+</p>","true","MullerLyer","function () {
            return jsPsych.timelineVariable(""Illusion_Strength"")
        }","function () {
            return jsPsych.timelineVariable(""Difference"")
        }","1","12"
"","IG_FixationCross","","html-keyboard-response","43","91820","0.0-11.0-2.0-2.0-0.4","","","","","","","","","","","","","","","","","","","","","null","<p style=""color: black; font-size: 80px; padding-left: 20%; padding-right: 44%; padding-top: 32%; padding-bottom: 2%"">+</p>","null","","","","","","910","","","","","","","","","","","","","",""
"","IG_Trial","","image-keyboard-response","44","92294","0.0-11.0-2.0-2.0-1.4","","","","","","","","","","","","","","","","","","","","","473","https://realitybending.github.io/IllusionGame/v3/stimuli/MullerLyer_23.0000_0.70000.png","arrowdown","","","","","","","MullerLyer_23.0000_0.70000.png","Practice","arrowup","MullerLyer","23.000000000","0.7000000000","91820","<p style=""color: black; font-size: 80px; padding-left: 20%; padding-right: 44%; padding-top: 32%; padding-bottom: 2%"">+</p>","false","MullerLyer","function () {
            return jsPsych.timelineVariable(""Illusion_Strength"")
        }","function () {
            return jsPsych.timelineVariable(""Difference"")
        }","1","13"
"","IG_FixationCross","","html-keyboard-response","45","93211","0.0-11.0-2.0-2.0-0.5","","","","","","","","","","","","","","","","","","","","","null","<p style=""color: black; font-size: 80px; padding-left: 12%; padding-right: 22%; padding-top: 34%; padding-bottom: 42%"">+</p>","null","","","","","","915","","","","","","","","","","","","","",""
"","IG_Trial","","image-keyboard-response","46","93653","0.0-11.0-2.0-2.0-1.5","","","","","","","","","","","","","","","","","","","","","441","https://realitybending.github.io/IllusionGame/v3/stimuli/MullerLyer_-3.0000_0.70000.png","arrowup","","","","","","","MullerLyer_-3.0000_0.70000.png","Practice","arrowup","MullerLyer","-3.000000000","0.7000000000","93211","<p style=""color: black; font-size: 80px; padding-left: 12%; padding-right: 22%; padding-top: 34%; padding-bottom: 42%"">+</p>","true","MullerLyer","function () {
            return jsPsych.timelineVariable(""Illusion_Strength"")
        }","function () {
            return jsPsych.timelineVariable(""Difference"")
        }","1","14"
"","IG_FixationCross","","html-keyboard-response","47","94337","0.0-11.0-2.0-2.0-0.6","","","","","","","","","","","","","","","","","","","","","null","<p style=""color: black; font-size: 80px; padding-left: 11%; padding-right: 42%; padding-top: 28%; padding-bottom: 1%"">+</p>","null","","","","","","682","","","","","","","","","","","","","",""
"","IG_Trial","","image-keyboard-response","48","94778","0.0-11.0-2.0-2.0-1.6","","","","","","","","","","","","","","","","","","","","","441","https://realitybending.github.io/IllusionGame/v3/stimuli/MullerLyer_23.0000_-0.7000.png","arrowdown","","","","","","","MullerLyer_23.0000_-0.7000.png","Practice","arrowdown","MullerLyer","23.000000000","-0.700000000","94337","<p style=""color: black; font-size: 80px; padding-left: 11%; padding-right: 42%; padding-top: 28%; padding-bottom: 1%"">+</p>","true","MullerLyer","function () {
            return jsPsych.timelineVariable(""Illusion_Strength"")
        }","function () {
            return jsPsych.timelineVariable(""Difference"")
        }","1","15"
"","IG_FixationCross","","html-keyboard-response","49","95493","0.0-11.0-2.0-2.0-0.7","","","","","","","","","","","","","","","","","","","","","null","<p style=""color: black; font-size: 80px; padding-left: 43%; padding-right: 7%; padding-top: 28%; padding-bottom: 10%"">+</p>","null","","","","","","713","","","","","","","","","","","","","",""
"","IG_Trial","","image-keyboard-response","50","96005","0.0-11.0-2.0-2.0-1.7","","","","","","","","","","","","","","","","","","","","","511","https://realitybending.github.io/IllusionGame/v3/stimuli/MullerLyer_-23.000_0.70000.png","arrowup","","","","","","","MullerLyer_-23.000_0.70000.png","Practice","arrowup","MullerLyer","-23.00000000","0.7000000000","95493","<p style=""color: black; font-size: 80px; padding-left: 43%; padding-right: 7%; padding-top: 28%; padding-bottom: 10%"">+</p>","true","MullerLyer","function () {
            return jsPsych.timelineVariable(""Illusion_Strength"")
        }","function () {
            return jsPsych.timelineVariable(""Difference"")
        }","1","16"
"","IG_PracticeResults","","html-button-response","51","97692","0.0-11.0-2.0-3.0","","","","","","","","","","","","","","","","","","","","","1687","<p style='color:rgb(76,175,80);'>Réponses correctes:<b>87.50%</b></p><hr><p style='color:rgb(139, 195, 74);'>Temps de réaction:<b>460.13</b> ms.</p>","0","","","","","","","","","","","","","","","","","","","",""
"true","IG_Preload","","preload","52","98377","0.0-11.0-3.0-0.0","","","","","","","","","","","","","","","","","","","","","","","","","false","[]","[]","[]","","","","","","","","","","","","","","",""
"","IG_Instructions","","html-keyboard-response","53","99132","0.0-11.0-3.0-1.0","","","","","","","","","","","","","","","","","","","","","754","<p><b>Entraînement</b></p><p>Dans cette partie, deux lignes rouges vont apparaître côte à côte à l'écran.</p><p>Vous devez sélectionner <b>quelle est la plus longue</b>, peu importe leur orientation, aussi vite que vous pouvez et sans faire d'erreurs.</p><p>Ne soyez pas distrait par l'orientation des lignes!</p><p>Appuyez sur <b>la flèche GAUCHE ou DROITE</b> pour indiquer quelle <b>ligne est la plus longue</b>.</p><div style='float: center'><img src='https://realitybending.github.io/IllusionGame/v3//images/VerticalHorizontal_Demo.png' height='200'></img><p><img src='https://realitybending.github.io/IllusionGame/v3//images/answer_leftright_keyboard.PNG' height='100'></img></p><p class='small'>Dans cet exemple, la réponse correcte est la <b>flèche GAUCHE</b>.</p></div><p>Êtes-vous prêt? <b>Appuyer sur la touche ENTRÉE pour démarrer</b></p>","enter","","","","","","","","","","","","","","","","","","","",""
"","IG_FixationCross","","html-keyboard-response","54","100274","0.0-11.0-3.0-2.0-0.0","","","","","","","","","","","","","","","","","","","","","null","<p style=""color: black; font-size: 80px; padding-left: 6%; padding-right: 36%; padding-top: 11%; padding-bottom: 47%"">+</p>","null","","","","","","638","","","","","","","","","","","","","",""
"","IG_Trial","","image-keyboard-response","55","100763","0.0-11.0-3.0-2.0-1.0","","","","","","","","","","","","","","","","","","","","","489","https://realitybending.github.io/IllusionGame/v3/stimuli/VerticalHorizontal_33.0000_-0.9000.png","arrowright","","","","","","","VerticalHorizontal_33.0000_-0.9000.png","Practice","arrowright","VerticalHorizontal","33.000000000","-0.900000000","100274","<p style=""color: black; font-size: 80px; padding-left: 6%; padding-right: 36%; padding-top: 11%; padding-bottom: 47%"">+</p>","true","VerticalHorizontal","function () {
            return jsPsych.timelineVariable(""Illusion_Strength"")
        }","function () {
            return jsPsych.timelineVariable(""Difference"")
        }","1","17"
"","IG_FixationCross","","html-keyboard-response","56","101513","0.0-11.0-3.0-2.0-0.1","","","","","","","","","","","","","","","","","","","","","null","<p style=""color: black; font-size: 80px; padding-left: 35%; padding-right: 14%; padding-top: 25%; padding-bottom: 17%"">+</p>","null","","","","","","748","","","","","","","","","","","","","",""
"","IG_Trial","","image-keyboard-response","57","101832","0.0-11.0-3.0-2.0-1.1","","","","","","","","","","","","","","","","","","","","","319","https://realitybending.github.io/IllusionGame/v3/stimuli/VerticalHorizontal_-33.000_-0.9000.png","arrowright","","","","","","","VerticalHorizontal_-33.000_-0.9000.png","Practice","arrowright","VerticalHorizontal","-33.00000000","-0.900000000","101513","<p style=""color: black; font-size: 80px; padding-left: 35%; padding-right: 14%; padding-top: 25%; padding-bottom: 17%"">+</p>","true","VerticalHorizontal","function () {
            return jsPsych.timelineVariable(""Illusion_Strength"")
        }","function () {
            return jsPsych.timelineVariable(""Difference"")
        }","1","18"
"","IG_FixationCross","","html-keyboard-response","58","102740","0.0-11.0-3.0-2.0-0.2","","","","","","","","","","","","","","","","","","","","","null","<p style=""color: black; font-size: 80px; padding-left: 46%; padding-right: 33%; padding-top: 14%; padding-bottom: 47%"">+</p>","null","","","","","","906","","","","","","","","","","","","","",""
"","IG_Trial","","image-keyboard-response","59","103115","0.0-11.0-3.0-2.0-1.2","","","","","","","","","","","","","","","","","","","","","374","https://realitybending.github.io/IllusionGame/v3/stimuli/VerticalHorizontal_33.0000_0.90000.png","arrowleft","","","","","","","VerticalHorizontal_33.0000_0.90000.png","Practice","arrowleft","VerticalHorizontal","33.000000000","0.9000000000","102740","<p style=""color: black; font-size: 80px; padding-left: 46%; padding-right: 33%; padding-top: 14%; padding-bottom: 47%"">+</p>","true","VerticalHorizontal","function () {
            return jsPsych.timelineVariable(""Illusion_Strength"")
        }","function () {
            return jsPsych.timelineVariable(""Difference"")
        }","1","19"
"","IG_FixationCross","","html-keyboard-response","60","104112","0.0-11.0-3.0-2.0-0.3","","","","","","","","","","","","","","","","","","","","","null","<p style=""color: black; font-size: 80px; padding-left: 2%; padding-right: 35%; padding-top: 29%; padding-bottom: 16%"">+</p>","null","","","","","","995","","","","","","","","","","","","","",""
"","IG_Trial","","image-keyboard-response","61","104442","0.0-11.0-3.0-2.0-1.3","","","","","","","","","","","","","","","","","","","","","330","https://realitybending.github.io/IllusionGame/v3/stimuli/VerticalHorizontal_-33.000_0.90000.png","arrowleft","","","","","","","VerticalHorizontal_-33.000_0.90000.png","Practice","arrowleft","VerticalHorizontal","-33.00000000","0.9000000000","104112","<p style=""color: black; font-size: 80px; padding-left: 2%; padding-right: 35%; padding-top: 29%; padding-bottom: 16%"">+</p>","true","VerticalHorizontal","function () {
            return jsPsych.timelineVariable(""Illusion_Strength"")
        }","function () {
            return jsPsych.timelineVariable(""Difference"")
        }","1","20"
"","IG_FixationCross","","html-keyboard-response","62","105448","0.0-11.0-3.0-2.0-0.4","","","","","","","","","","","","","","","","","","","","","null","<p style=""color: black; font-size: 80px; padding-left: 25%; padding-right: 45%; padding-top: 26%; padding-bottom: 14%"">+</p>","null","","","","","","1003","","","","","","","","","","","","","",""
"","IG_Trial","","image-keyboard-response","63","105938","0.0-11.0-3.0-2.0-1.4","","","","","","","","","","","","","","","","","","","","","490","https://realitybending.github.io/IllusionGame/v3/stimuli/VerticalHorizontal_-4.5000_0.90000.png","arrowleft","","","","","","","VerticalHorizontal_-4.5000_0.90000.png","Practice","arrowleft","VerticalHorizontal","-4.500000000","0.9000000000","105448","<p style=""color: black; font-size: 80px; padding-left: 25%; padding-right: 45%; padding-top: 26%; padding-bottom: 14%"">+</p>","true","VerticalHorizontal","function () {
            return jsPsych.timelineVariable(""Illusion_Strength"")
        }","function () {
            return jsPsych.timelineVariable(""Difference"")
        }","1","21"
"","IG_FixationCross","","html-keyboard-response","64","106649","0.0-11.0-3.0-2.0-0.5","","","","","","","","","","","","","","","","","","","","","null","<p style=""color: black; font-size: 80px; padding-left: 26%; padding-right: 16%; padding-top: 23%; padding-bottom: 39%"">+</p>","null","","","","","","709","","","","","","","","","","","","","",""
"","IG_Trial","","image-keyboard-response","65","106985","0.0-11.0-3.0-2.0-1.5","","","","","","","","","","","","","","","","","","","","","335","https://realitybending.github.io/IllusionGame/v3/stimuli/VerticalHorizontal_4.50000_-0.9000.png","arrowright","","","","","","","VerticalHorizontal_4.50000_-0.9000.png","Practice","arrowright","VerticalHorizontal","4.5000000000","-0.900000000","106649","<p style=""color: black; font-size: 80px; padding-left: 26%; padding-right: 16%; padding-top: 23%; padding-bottom: 39%"">+</p>","true","VerticalHorizontal","function () {
            return jsPsych.timelineVariable(""Illusion_Strength"")
        }","function () {
            return jsPsych.timelineVariable(""Difference"")
        }","1","22"
"","IG_FixationCross","","html-keyboard-response","66","108006","0.0-11.0-3.0-2.0-0.6","","","","","","","","","","","","","","","","","","","","","null","<p style=""color: black; font-size: 80px; padding-left: 18%; padding-right: 42%; padding-top: 22%; padding-bottom: 41%"">+</p>","null","","","","","","1019","","","","","","","","","","","","","",""
"","IG_Trial","","image-keyboard-response","67","108346","0.0-11.0-3.0-2.0-1.6","","","","","","","","","","","","","","","","","","","","","339","https://realitybending.github.io/IllusionGame/v3/stimuli/VerticalHorizontal_-4.5000_-0.9000.png","arrowright","","","","","","","VerticalHorizontal_-4.5000_-0.9000.png","Practice","arrowright","VerticalHorizontal","-4.500000000","-0.900000000","108006","<p style=""color: black; font-size: 80px; padding-left: 18%; padding-right: 42%; padding-top: 22%; padding-bottom: 41%"">+</p>","true","VerticalHorizontal","function () {
            return jsPsych.timelineVariable(""Illusion_Strength"")
        }","function () {
            return jsPsych.timelineVariable(""Difference"")
        }","1","23"
"","IG_FixationCross","","html-keyboard-response","68","109081","0.0-11.0-3.0-2.0-0.7","","","","","","","","","","","","","","","","","","","","","null","<p style=""color: black; font-size: 80px; padding-left: 33%; padding-right: 2%; padding-top: 7%; padding-bottom: 21%"">+</p>","null","","","","","","733","","","","","","","","","","","","","",""
"","IG_Trial","","image-keyboard-response","69","109596","0.0-11.0-3.0-2.0-1.7","","","","","","","","","","","","","","","","","","","","","515","https://realitybending.github.io/IllusionGame/v3/stimuli/VerticalHorizontal_4.50000_0.90000.png","arrowright","","","","","","","VerticalHorizontal_4.50000_0.90000.png","Practice","arrowleft","VerticalHorizontal","4.5000000000","0.9000000000","109081","<p style=""color: black; font-size: 80px; padding-left: 33%; padding-right: 2%; padding-top: 7%; padding-bottom: 21%"">+</p>","false","VerticalHorizontal","function () {
            return jsPsych.timelineVariable(""Illusion_Strength"")
        }","function () {
            return jsPsych.timelineVariable(""Difference"")
        }","1","24"
"","IG_PracticeResults","","html-button-response","70","111203","0.0-11.0-3.0-3.0","","","","","","","","","","","","","","","","","","","","","1605","<p style='color:rgb(76,175,80);'>Réponses correctes:<b>87.50%</b></p><hr><p style='color:rgb(139, 195, 74);'>Temps de réaction:<b>398.88</b> ms.</p>","0","","","","","","","","","","","","","","","","","","","",""
"","IG_PracticeDebrief","","html-button-response","71","113397","0.0-11.0-4.0","","","","","","","","","","","","","","","","","","","","","1692","<h1>Entraînement terminé</h1><p>Dans la phase suivante, il va y avoir plus d'essais, dont certains pourraient être plus difficiles.<br>De plus, après chaque bloc d'illusion, un <b>score</b> sera calculé sur la base de votre vitesse (le temps que vous avez mis à répondre) et de votre précision (votre nombre d'erreurs).</p><p><i>Essayez de maintenir un score élevé!</i></p><br><p>Notez que ça peut être <i>vraiment</i> difficile parfois, de manière à ce que vous deviez vous fier à votre <b>intuition</b> et vos ressentis pour répondre aussi vite que possible sans faire d'erreur.</p><p>Chaque bloc d'illusion sera répété deux fois (de manière à ce que vous puissiez améliorer votre score), mais l'ordre des blocs est aléatoire.</p><p>Souvenez-vous, vous devez être aussi <b>rapide</b> et <b>précis</b> que possible. Bonne chance!</p><br>","0","","","","","","","","","","","","","","","","","","","",""
"true","IG_Preload","","preload","72","114080","0.0-12.0-0.0-0.0","","","","","","","","","","","","","","","","","","","","","","","","","false","[]","[]","[]","","","","","","","","","","","","","","",""
"","IG_Instructions","","html-keyboard-response","73","121880","0.0-12.0-0.0-1.0","","","","","","","","","","","","","","","","","","","","","7799","<p>Dans cette partie, deux lignes horizontales rouges vont apparaître l'une au dessus de l'autre.</p><p>Vous devez sélectionner quelle <b>ligne est la plus longue</b> aussi rapidement que vous pouvez sans faire d'erreurs.</p><p>Ne soyez pas distrait par les croix noires à la fin des lignes rouges!</p><p>Appuyez sur <b>la flèche HAUT ou BAS</b> pour indiquer où est la plus longue <b>ligne rouge</b>.</p><div style='float: center'><img src='https://realitybending.github.io/IllusionGame/v3//images/MullerLyer_Demo.png' height='200'></img><p><img src='https://realitybending.github.io/IllusionGame/v3//images/answer_updown_keyboard.PNG' height='100'></img></p><p class='small'Dans cet exemple, la réponse correcte est la <b>flèche HAUT</b>.</p></div><p>Êtes-vous prêt? <b>Appuyer sur la touche ENTRÉE pour démarrer</b></p>","enter","","","","","","","","","","","","","","","","","","","",""
"","IG_FixationCross","","html-keyboard-response","74","123475","0.0-12.0-0.0-2.0-0.0","","","","","","","","","","","","","","","","","","","","","null","<p style=""color: black; font-size: 80px; padding-left: 44%; padding-right: 31%; padding-top: 17%; padding-bottom: 32%"">+</p>","null","","","","","","1092","","","","","","","","","","","","","",""
"","IG_Trial","","image-keyboard-response","75","123894","0.0-12.0-0.0-2.0-1.0","","","","","","","","","","","","","","","","","","","","","418","https://realitybending.github.io/IllusionGame/v3/stimuli/MullerLyer_-21.000_-0.4500.png","arrowdown","","","","","","","MullerLyer_-21.000_-0.4500.png","A","arrowdown","MullerLyer","-21.00000000","-0.450000000","123475","<p style=""color: black; font-size: 80px; padding-left: 44%; padding-right: 31%; padding-top: 17%; padding-bottom: 32%"">+</p>","true","MullerLyer","function () {
            return jsPsych.timelineVariable(""Illusion_Strength"")
        }","function () {
            return jsPsych.timelineVariable(""Difference"")
        }","1","1"
"","IG_FixationCross","","html-keyboard-response","76","124813","0.0-12.0-0.0-2.0-0.1","","","","","","","","","","","","","","","","","","","","","null","<p style=""color: black; font-size: 80px; padding-left: 32%; padding-right: 33%; padding-top: 37%; padding-bottom: 31%"">+</p>","null","","","","","","917","","","","","","","","","","","","","",""
"","IG_Trial","","image-keyboard-response","77","124817","0.0-12.0-0.0-2.0-1.1","","","","","","","","","","","","","","","","","","","","","4","https://realitybending.github.io/IllusionGame/v3/stimuli/MullerLyer_15.0000_0.30447.png","arrowup","","","","","","","MullerLyer_15.0000_0.30447.png","A","arrowup","MullerLyer","15.000000000","0.3044700000","124813","<p style=""color: black; font-size: 80px; padding-left: 32%; padding-right: 33%; padding-top: 37%; padding-bottom: 31%"">+</p>","true","MullerLyer","function () {
            return jsPsych.timelineVariable(""Illusion_Strength"")
        }","function () {
            return jsPsych.timelineVariable(""Difference"")
        }","1","2"
"","IG_FixationCross","","html-keyboard-response","78","125900","0.0-12.0-0.0-2.0-0.2","","","","","","","","","","","","","","","","","","","","","null","<p style=""color: black; font-size: 80px; padding-left: 20%; padding-right: 32%; padding-top: 28%; padding-bottom: 3%"">+</p>","null","","","","","","1082","","","","","","","","","","","","","",""
"","IG_Trial","","image-keyboard-response","79","125941","0.0-12.0-0.0-2.0-1.2","","","","","","","","","","","","","","","","","","","","","40","https://realitybending.github.io/IllusionGame/v3/stimuli/MullerLyer_3.00000_-0.30447.png","arrowup","","","","","","","MullerLyer_3.00000_-0.30447.png","A","arrowdown","MullerLyer","3.0000000000","-0.304470000","125900","<p style=""color: black; font-size: 80px; padding-left: 20%; padding-right: 32%; padding-top: 28%; padding-bottom: 3%"">+</p>","false","MullerLyer","function () {
            return jsPsych.timelineVariable(""Illusion_Strength"")
        }","function () {
            return jsPsych.timelineVariable(""Difference"")
        }","1","3"
"","IG_FixationCross","","html-keyboard-response","80","126889","0.0-12.0-0.0-2.0-0.3","","","","","","","","","","","","","","","","","","","","","null","<p style=""color: black; font-size: 80px; padding-left: 7%; padding-right: 0%; padding-top: 35%; padding-bottom: 3%"">+</p>","null","","","","","","946","","","","","","","","","","","","","",""
"","IG_Trial","","image-keyboard-response","81","127325","0.0-12.0-0.0-2.0-1.3","","","","","","","","","","","","","","","","","","","","","435","https://realitybending.github.io/IllusionGame/v3/stimuli/MullerLyer_-21.000_0.08716.png","arrowup","","","","","","","MullerLyer_-21.000_0.08716.png","A","arrowup","MullerLyer","-21.00000000","0.0871600000","126889","<p style=""color: black; font-size: 80px; padding-left: 7%; padding-right: 0%; padding-top: 35%; padding-bottom: 3%"">+</p>","true","MullerLyer","function () {
            return jsPsych.timelineVariable(""Illusion_Strength"")
        }","function () {
            return jsPsych.timelineVariable(""Difference"")
        }","1","4"
"","IG_FixationCross","","html-keyboard-response","82","128263","0.0-12.0-0.0-2.0-0.4","","","","","","","","","","","","","","","","","","","","","null","<p style=""color: black; font-size: 80px; padding-left: 31%; padding-right: 28%; padding-top: 8%; padding-bottom: 31%"">+</p>","null","","","","","","936","","","","","","","","","","","","","",""
"","IG_Trial","","image-keyboard-response","83","128675","0.0-12.0-0.0-2.0-1.4","","","","","","","","","","","","","","","","","","","","","411","https://realitybending.github.io/IllusionGame/v3/stimuli/MullerLyer_27.0000_0.18509.png","arrowdown","","","","","","","MullerLyer_27.0000_0.18509.png","A","arrowup","MullerLyer","27.000000000","0.1850900000","128263","<p style=""color: black; font-size: 80px; padding-left: 31%; padding-right: 28%; padding-top: 8%; padding-bottom: 31%"">+</p>","false","MullerLyer","function () {
            return jsPsych.timelineVariable(""Illusion_Strength"")
        }","function () {
            return jsPsych.timelineVariable(""Difference"")
        }","1","5"
"","IG_FixationCross","","html-keyboard-response","84","129547","0.0-12.0-0.0-2.0-0.5","","","","","","","","","","","","","","","","","","","","","null","<p style=""color: black; font-size: 80px; padding-left: 45%; padding-right: 8%; padding-top: 49%; padding-bottom: 1%"">+</p>","null","","","","","","870","","","","","","","","","","","","","",""
"","IG_Trial","","image-keyboard-response","85","130061","0.0-12.0-0.0-2.0-1.5","","","","","","","","","","","","","","","","","","","","","514","https://realitybending.github.io/IllusionGame/v3/stimuli/MullerLyer_-27.000_-0.08716.png","arrowdown","","","","","","","MullerLyer_-27.000_-0.08716.png","A","arrowdown","MullerLyer","-27.00000000","-0.087160000","129547","<p style=""color: black; font-size: 80px; padding-left: 45%; padding-right: 8%; padding-top: 49%; padding-bottom: 1%"">+</p>","true","MullerLyer","function () {
            return jsPsych.timelineVariable(""Illusion_Strength"")
        }","function () {
            return jsPsych.timelineVariable(""Difference"")
        }","1","6"
"","IG_FixationCross","","html-keyboard-response","86","131103","0.0-12.0-0.0-2.0-0.6","","","","","","","","","","","","","","","","","","","","","null","<p style=""color: black; font-size: 80px; padding-left: 8%; padding-right: 17%; padding-top: 22%; padding-bottom: 40%"">+</p>","null","","","","","","1040","","","","","","","","","","","","","",""
"","IG_Trial","","image-keyboard-response","87","131499","0.0-12.0-0.0-2.0-1.6","","","","","","","","","","","","","","","","","","","","","395","https://realitybending.github.io/IllusionGame/v3/stimuli/MullerLyer_15.0000_0.45000.png","arrowup","","","","","","","MullerLyer_15.0000_0.45000.png","A","arrowup","MullerLyer","15.000000000","0.4500000000","131103","<p style=""color: black; font-size: 80px; padding-left: 8%; padding-right: 17%; padding-top: 22%; padding-bottom: 40%"">+</p>","true","MullerLyer","function () {
            return jsPsych.timelineVariable(""Illusion_Strength"")
        }","function () {
            return jsPsych.timelineVariable(""Difference"")
        }","1","7"
"","IG_FixationCross","","html-keyboard-response","88","132180","0.0-12.0-0.0-2.0-0.7","","","","","","","","","","","","","","","","","","","","","null","<p style=""color: black; font-size: 80px; padding-left: 23%; padding-right: 40%; padding-top: 44%; padding-bottom: 42%"">+</p>","null","","","","","","680","","","","","","","","","","","","","",""
"","IG_Trial","","image-keyboard-response","89","132578","0.0-12.0-0.0-2.0-1.7","","","","","","","","","","","","","","","","","","","","","398","https://realitybending.github.io/IllusionGame/v3/stimuli/MullerLyer_21.0000_0.30447.png","arrowdown","","","","","","","MullerLyer_21.0000_0.30447.png","A","arrowup","MullerLyer","21.000000000","0.3044700000","132180","<p style=""color: black; font-size: 80px; padding-left: 23%; padding-right: 40%; padding-top: 44%; padding-bottom: 42%"">+</p>","false","MullerLyer","function () {
            return jsPsych.timelineVariable(""Illusion_Strength"")
        }","function () {
            return jsPsych.timelineVariable(""Difference"")
        }","1","8"
"","IG_FixationCross","","html-keyboard-response","90","133634","0.0-12.0-0.0-2.0-0.8","","","","","","","","","","","","","","","","","","","","","null","<p style=""color: black; font-size: 80px; padding-left: 32%; padding-right: 13%; padding-top: 32%; padding-bottom: 6%"">+</p>","null","","","","","","1053","","","","","","","","","","","","","",""
"","IG_Trial","","image-keyboard-response","91","134176","0.0-12.0-0.0-2.0-1.8","","","","","","","","","","","","","","","","","","","","","541","https://realitybending.github.io/IllusionGame/v3/stimuli/MullerLyer_21.0000_0.08716.png","arrowup","","","","","","","MullerLyer_21.0000_0.08716.png","A","arrowup","MullerLyer","21.000000000","0.0871600000","133634","<p style=""color: black; font-size: 80px; padding-left: 32%; padding-right: 13%; padding-top: 32%; padding-bottom: 6%"">+</p>","true","MullerLyer","function () {
            return jsPsych.timelineVariable(""Illusion_Strength"")
        }","function () {
            return jsPsych.timelineVariable(""Difference"")
        }","1","9"
"","IG_FixationCross","","html-keyboard-response","92","135164","0.0-12.0-0.0-2.0-0.9","","","","","","","","","","","","","","","","","","","","","null","<p style=""color: black; font-size: 80px; padding-left: 16%; padding-right: 36%; padding-top: 25%; padding-bottom: 16%"">+</p>","null","","","","","","986","","","","","","","","","","","","","",""
"","IG_Trial","","image-keyboard-response","93","135504","0.0-12.0-0.0-2.0-1.9","","","","","","","","","","","","","","","","","","","","","339","https://realitybending.github.io/IllusionGame/v3/stimuli/MullerLyer_-27.000_0.45000.png","arrowup","","","","","","","MullerLyer_-27.000_0.45000.png","A","arrowup","MullerLyer","-27.00000000","0.4500000000","135164","<p style=""color: black; font-size: 80px; padding-left: 16%; padding-right: 36%; padding-top: 25%; padding-bottom: 16%"">+</p>","true","MullerLyer","function () {
            return jsPsych.timelineVariable(""Illusion_Strength"")
        }","function () {
            return jsPsych.timelineVariable(""Difference"")
        }","1","10"
"","IG_FixationCross","","html-keyboard-response","94","136294","0.0-12.0-0.0-2.0-0.10","","","","","","","","","","","","","","","","","","","","","null","<p style=""color: black; font-size: 80px; padding-left: 28%; padding-right: 8%; padding-top: 50%; padding-bottom: 10%"">+</p>","null","","","","","","789","","","","","","","","","","","","","",""
"","IG_Trial","","image-keyboard-response","95","136696","0.0-12.0-0.0-2.0-1.10","","","","","","","","","","","","","","","","","","","","","401","https://realitybending.github.io/IllusionGame/v3/stimuli/MullerLyer_9.00000_0.45000.png","arrowup","","","","","","","MullerLyer_9.00000_0.45000.png","A","arrowup","MullerLyer","9.0000000000","0.4500000000","136294","<p style=""color: black; font-size: 80px; padding-left: 28%; padding-right: 8%; padding-top: 50%; padding-bottom: 10%"">+</p>","true","MullerLyer","function () {
            return jsPsych.timelineVariable(""Illusion_Strength"")
        }","function () {
            return jsPsych.timelineVariable(""Difference"")
        }","1","11"
"","IG_FixationCross","","html-keyboard-response","96","137397","0.0-12.0-0.0-2.0-0.11","","","","","","","","","","","","","","","","","","","","","null","<p style=""color: black; font-size: 80px; padding-left: 31%; padding-right: 26%; padding-top: 40%; padding-bottom: 5%"">+</p>","null","","","","","","699","","","","","","","","","","","","","",""
"","IG_Trial","","image-keyboard-response","97","137894","0.0-12.0-0.0-2.0-1.11","","","","","","","","","","","","","","","","","","","","","496","https://realitybending.github.io/IllusionGame/v3/stimuli/MullerLyer_-9.0000_0.08716.png","arrowup","","","","","","","MullerLyer_-9.0000_0.08716.png","A","arrowup","MullerLyer","-9.000000000","0.0871600000","137397","<p style=""color: black; font-size: 80px; padding-left: 31%; padding-right: 26%; padding-top: 40%; padding-bottom: 5%"">+</p>","true","MullerLyer","function () {
            return jsPsych.timelineVariable(""Illusion_Strength"")
        }","function () {
            return jsPsych.timelineVariable(""Difference"")
        }","1","12"
"","IG_FixationCross","","html-keyboard-response","98","138922","0.0-12.0-0.0-2.0-0.12","","","","","","","","","","","","","","","","","","","","","null","<p style=""color: black; font-size: 80px; padding-left: 14%; padding-right: 14%; padding-top: 27%; padding-bottom: 34%"">+</p>","null","","","","","","1026","","","","","","","","","","","","","",""
"","IG_Trial","","image-keyboard-response","99","139160","0.0-12.0-0.0-2.0-1.12","","","","","","","","","","","","","","","","","","","","","237","https://realitybending.github.io/IllusionGame/v3/stimuli/MullerLyer_-27.000_-0.18509.png","arrowdown","","","","","","","MullerLyer_-27.000_-0.18509.png","A","arrowdown","MullerLyer","-27.00000000","-0.185090000","138922","<p style=""color: black; font-size: 80px; padding-left: 14%; padding-right: 14%; padding-top: 27%; padding-bottom: 34%"">+</p>","true","MullerLyer","function () {
            return jsPsych.timelineVariable(""Illusion_Strength"")
        }","function () {
            return jsPsych.timelineVariable(""Difference"")
        }","1","13"
"","IG_FixationCross","","html-keyboard-response","100","140205","0.0-12.0-0.0-2.0-0.13","","","","","","","","","","","","","","","","","","","","","null","<p style=""color: black; font-size: 80px; padding-left: 44%; padding-right: 16%; padding-top: 29%; padding-bottom: 44%"">+</p>","null","","","","","","1043","","","","","","","","","","","","","",""
"","IG_Trial","","image-keyboard-response","101","140726","0.0-12.0-0.0-2.0-1.13","","","","","","","","","","","","","","","","","","","","","521","https://realitybending.github.io/IllusionGame/v3/stimuli/MullerLyer_21.0000_-0.18509.png","arrowdown","","","","","","","MullerLyer_21.0000_-0.18509.png","A","arrowdown","MullerLyer","21.000000000","-0.185090000","140205","<p style=""color: black; font-size: 80px; padding-left: 44%; padding-right: 16%; padding-top: 29%; padding-bottom: 44%"">+</p>","true","MullerLyer","function () {
            return jsPsych.timelineVariable(""Illusion_Strength"")
        }","function () {
            return jsPsych.timelineVariable(""Difference"")
        }","1","14"
"","IG_FixationCross","","html-keyboard-response","102","141459","0.0-12.0-0.0-2.0-0.14","","","","","","","","","","","","","","","","","","","","","null","<p style=""color: black; font-size: 80px; padding-left: 48%; padding-right: 19%; padding-top: 34%; padding-bottom: 42%"">+</p>","null","","","","","","730","","","","","","","","","","","","","",""
"","IG_Trial","","image-keyboard-response","103","142018","0.0-12.0-0.0-2.0-1.14","","","","","","","","","","","","","","","","","","","","","558","https://realitybending.github.io/IllusionGame/v3/stimuli/MullerLyer_-15.000_-0.18509.png","arrowup","","","","","","","MullerLyer_-15.000_-0.18509.png","A","arrowdown","MullerLyer","-15.00000000","-0.185090000","141459","<p style=""color: black; font-size: 80px; padding-left: 48%; padding-right: 19%; padding-top: 34%; padding-bottom: 42%"">+</p>","false","MullerLyer","function () {
            return jsPsych.timelineVariable(""Illusion_Strength"")
        }","function () {
            return jsPsych.timelineVariable(""Difference"")
        }","1","15"
"","IG_FixationCross","","html-keyboard-response","104","142990","0.0-12.0-0.0-2.0-0.15","","","","","","","","","","","","","","","","","","","","","null","<p style=""color: black; font-size: 80px; padding-left: 11%; padding-right: 36%; padding-top: 13%; padding-bottom: 43%"">+</p>","null","","","","","","970","","","","","","","","","","","","","",""
"","IG_Trial","","image-keyboard-response","105","143485","0.0-12.0-0.0-2.0-1.15","","","","","","","","","","","","","","","","","","","","","494","https://realitybending.github.io/IllusionGame/v3/stimuli/MullerLyer_-9.0000_0.18509.png","arrowup","","","","","","","MullerLyer_-9.0000_0.18509.png","A","arrowup","MullerLyer","-9.000000000","0.1850900000","142990","<p style=""color: black; font-size: 80px; padding-left: 11%; padding-right: 36%; padding-top: 13%; padding-bottom: 43%"">+</p>","true","MullerLyer","function () {
            return jsPsych.timelineVariable(""Illusion_Strength"")
        }","function () {
            return jsPsych.timelineVariable(""Difference"")
        }","1","16"
"","IG_FixationCross","","html-keyboard-response","106","144585","0.0-12.0-0.0-2.0-0.16","","","","","","","","","","","","","","","","","","","","","null","<p style=""color: black; font-size: 80px; padding-left: 45%; padding-right: 31%; padding-top: 48%; padding-bottom: 24%"">+</p>","null","","","","","","1098","","","","","","","","","","","","","",""
"","IG_Trial","","image-keyboard-response","107","145397","0.0-12.0-0.0-2.0-1.16","","","","","","","","","","","","","","","","","","","","","812","https://realitybending.github.io/IllusionGame/v3/stimuli/MullerLyer_-9.0000_-0.08716.png","arrowup","","","","","","","MullerLyer_-9.0000_-0.08716.png","A","arrowdown","MullerLyer","-9.000000000","-0.087160000","144585","<p style=""color: black; font-size: 80px; padding-left: 45%; padding-right: 31%; padding-top: 48%; padding-bottom: 24%"">+</p>","false","MullerLyer","function () {
            return jsPsych.timelineVariable(""Illusion_Strength"")
        }","function () {
            return jsPsych.timelineVariable(""Difference"")
        }","1","17"
"","IG_FixationCross","","html-keyboard-response","108","146308","0.0-12.0-0.0-2.0-0.17","","","","","","","","","","","","","","","","","","","","","null","<p style=""color: black; font-size: 80px; padding-left: 23%; padding-right: 2%; padding-top: 8%; padding-bottom: 4%"">+</p>","null","","","","","","908","","","","","","","","","","","","","",""
"","IG_Trial","","image-keyboard-response","109","146438","0.0-12.0-0.0-2.0-1.17","","","","","","","","","","","","","","","","","","","","","130","https://realitybending.github.io/IllusionGame/v3/stimuli/MullerLyer_27.0000_0.08716.png","arrowup","","","","","","","MullerLyer_27.0000_0.08716.png","A","arrowup","MullerLyer","27.000000000","0.0871600000","146308","<p style=""color: black; font-size: 80px; padding-left: 23%; padding-right: 2%; padding-top: 8%; padding-bottom: 4%"">+</p>","true","MullerLyer","function () {
            return jsPsych.timelineVariable(""Illusion_Strength"")
        }","function () {
            return jsPsych.timelineVariable(""Difference"")
        }","1","18"
"","IG_FixationCross","","html-keyboard-response","110","147474","0.0-12.0-0.0-2.0-0.18","","","","","","","","","","","","","","","","","","","","","null","<p style=""color: black; font-size: 80px; padding-left: 24%; padding-right: 31%; padding-top: 15%; padding-bottom: 40%"">+</p>","null","","","","","","1034","","","","","","","","","","","","","",""
"","IG_Trial","","image-keyboard-response","111","147833","0.0-12.0-0.0-2.0-1.18","","","","","","","","","","","","","","","","","","","","","359","https://realitybending.github.io/IllusionGame/v3/stimuli/MullerLyer_3.00000_-0.08716.png","arrowdown","","","","","","","MullerLyer_3.00000_-0.08716.png","A","arrowdown","MullerLyer","3.0000000000","-0.087160000","147474","<p style=""color: black; font-size: 80px; padding-left: 24%; padding-right: 31%; padding-top: 15%; padding-bottom: 40%"">+</p>","true","MullerLyer","function () {
            return jsPsych.timelineVariable(""Illusion_Strength"")
        }","function () {
            return jsPsych.timelineVariable(""Difference"")
        }","1","19"
"","IG_FixationCross","","html-keyboard-response","112","148602","0.0-12.0-0.0-2.0-0.19","","","","","","","","","","","","","","","","","","","","","null","<p style=""color: black; font-size: 80px; padding-left: 31%; padding-right: 8%; padding-top: 45%; padding-bottom: 7%"">+</p>","null","","","","","","766","","","","","","","","","","","","","",""
"","IG_Trial","","image-keyboard-response","113","148869","0.0-12.0-0.0-2.0-1.19","","","","","","","","","","","","","","","","","","","","","266","https://realitybending.github.io/IllusionGame/v3/stimuli/MullerLyer_9.00000_-0.4500.png","arrowup","","","","","","","MullerLyer_9.00000_-0.4500.png","A","arrowdown","MullerLyer","9.0000000000","-0.450000000","148602","<p style=""color: black; font-size: 80px; padding-left: 31%; padding-right: 8%; padding-top: 45%; padding-bottom: 7%"">+</p>","false","MullerLyer","function () {
            return jsPsych.timelineVariable(""Illusion_Strength"")
        }","function () {
            return jsPsych.timelineVariable(""Difference"")
        }","1","20"
"","IG_FixationCross","","html-keyboard-response","114","149474","0.0-12.0-0.0-2.0-0.20","","","","","","","","","","","","","","","","","","","","","null","<p style=""color: black; font-size: 80px; padding-left: 3%; padding-right: 33%; padding-top: 0%; padding-bottom: 2%"">+</p>","null","","","","","","603","","","","","","","","","","","","","",""
"","IG_Trial","","image-keyboard-response","115","150423","0.0-12.0-0.0-2.0-1.20","","","","","","","","","","","","","","","","","","","","","948","https://realitybending.github.io/IllusionGame/v3/stimuli/MullerLyer_-27.000_0.08716.png","arrowup","","","","","","","MullerLyer_-27.000_0.08716.png","A","arrowup","MullerLyer","-27.00000000","0.0871600000","149474","<p style=""color: black; font-size: 80px; padding-left: 3%; padding-right: 33%; padding-top: 0%; padding-bottom: 2%"">+</p>","true","MullerLyer","function () {
            return jsPsych.timelineVariable(""Illusion_Strength"")
        }","function () {
            return jsPsych.timelineVariable(""Difference"")
        }","1","21"
"","IG_FixationCross","","html-keyboard-response","116","151239","0.0-12.0-0.0-2.0-0.21","","","","","","","","","","","","","","","","","","","","","null","<p style=""color: black; font-size: 80px; padding-left: 38%; padding-right: 35%; padding-top: 37%; padding-bottom: 36%"">+</p>","null","","","","","","814","","","","","","","","","","","","","",""
"","IG_Trial","","image-keyboard-response","117","151781","0.0-12.0-0.0-2.0-1.21","","","","","","","","","","","","","","","","","","","","","541","https://realitybending.github.io/IllusionGame/v3/stimuli/MullerLyer_-9.0000_-0.4500.png","arrowup","","","","","","","MullerLyer_-9.0000_-0.4500.png","A","arrowdown","MullerLyer","-9.000000000","-0.450000000","151239","<p style=""color: black; font-size: 80px; padding-left: 38%; padding-right: 35%; padding-top: 37%; padding-bottom: 36%"">+</p>","false","MullerLyer","function () {
            return jsPsych.timelineVariable(""Illusion_Strength"")
        }","function () {
            return jsPsych.timelineVariable(""Difference"")
        }","1","22"
"","IG_FixationCross","","html-keyboard-response","118","152811","0.0-12.0-0.0-2.0-0.22","","","","","","","","","","","","","","","","","","","","","null","<p style=""color: black; font-size: 80px; padding-left: 21%; padding-right: 16%; padding-top: 37%; padding-bottom: 10%"">+</p>","null","","","","","","1028","","","","","","","","","","","","","",""
"","IG_Trial","","image-keyboard-response","119","153380","0.0-12.0-0.0-2.0-1.22","","","","","","","","","","","","","","","","","","","","","569","https://realitybending.github.io/IllusionGame/v3/stimuli/MullerLyer_-9.0000_-0.30447.png","arrowdown","","","","","","","MullerLyer_-9.0000_-0.30447.png","A","arrowdown","MullerLyer","-9.000000000","-0.304470000","152811","<p style=""color: black; font-size: 80px; padding-left: 21%; padding-right: 16%; padding-top: 37%; padding-bottom: 10%"">+</p>","true","MullerLyer","function () {
            return jsPsych.timelineVariable(""Illusion_Strength"")
        }","function () {
            return jsPsych.timelineVariable(""Difference"")
        }","1","23"
"","IG_FixationCross","","html-keyboard-response","120","154252","0.0-12.0-0.0-2.0-0.23","","","","","","","","","","","","","","","","","","","","","null","<p style=""color: black; font-size: 80px; padding-left: 34%; padding-right: 48%; padding-top: 34%; padding-bottom: 21%"">+</p>","null","","","","","","870","","","","","","","","","","","","","",""
"","IG_Trial","","image-keyboard-response","121","154752","0.0-12.0-0.0-2.0-1.23","","","","","","","","","","","","","","","","","","","","","500","https://realitybending.github.io/IllusionGame/v3/stimuli/MullerLyer_-21.000_-0.08716.png","arrowdown","","","","","","","MullerLyer_-21.000_-0.08716.png","A","arrowdown","MullerLyer","-21.00000000","-0.087160000","154252","<p style=""color: black; font-size: 80px; padding-left: 34%; padding-right: 48%; padding-top: 34%; padding-bottom: 21%"">+</p>","true","MullerLyer","function () {
            return jsPsych.timelineVariable(""Illusion_Strength"")
        }","function () {
            return jsPsych.timelineVariable(""Difference"")
        }","1","24"
"","IG_FixationCross","","html-keyboard-response","122","155672","0.0-12.0-0.0-2.0-0.24","","","","","","","","","","","","","","","","","","","","","null","<p style=""color: black; font-size: 80px; padding-left: 46%; padding-right: 0%; padding-top: 17%; padding-bottom: 46%"">+</p>","null","","","","","","917","","","","","","","","","","","","","",""
"","IG_Trial","","image-keyboard-response","123","156098","0.0-12.0-0.0-2.0-1.24","","","","","","","","","","","","","","","","","","","","","426","https://realitybending.github.io/IllusionGame/v3/stimuli/MullerLyer_-3.0000_-0.08716.png","arrowup","","","","","","","MullerLyer_-3.0000_-0.08716.png","A","arrowdown","MullerLyer","-3.000000000","-0.087160000","155672","<p style=""color: black; font-size: 80px; padding-left: 46%; padding-right: 0%; padding-top: 17%; padding-bottom: 46%"">+</p>","false","MullerLyer","function () {
            return jsPsych.timelineVariable(""Illusion_Strength"")
        }","function () {
            return jsPsych.timelineVariable(""Difference"")
        }","1","25"
"","IG_FixationCross","","html-keyboard-response","124","156924","0.0-12.0-0.0-2.0-0.25","","","","","","","","","","","","","","","","","","","","","null","<p style=""color: black; font-size: 80px; padding-left: 10%; padding-right: 19%; padding-top: 25%; padding-bottom: 19%"">+</p>","null","","","","","","825","","","","","","","","","","","","","",""
"","IG_Trial","","image-keyboard-response","125","157520","0.0-12.0-0.0-2.0-1.25","","","","","","","","","","","","","","","","","","","","","595","https://realitybending.github.io/IllusionGame/v3/stimuli/MullerLyer_-3.0000_-0.30447.png","arrowdown","","","","","","","MullerLyer_-3.0000_-0.30447.png","A","arrowdown","MullerLyer","-3.000000000","-0.304470000","156924","<p style=""color: black; font-size: 80px; padding-left: 10%; padding-right: 19%; padding-top: 25%; padding-bottom: 19%"">+</p>","true","MullerLyer","function () {
            return jsPsych.timelineVariable(""Illusion_Strength"")
        }","function () {
            return jsPsych.timelineVariable(""Difference"")
        }","1","26"
"","IG_FixationCross","","html-keyboard-response","126","158570","0.0-12.0-0.0-2.0-0.26","","","","","","","","","","","","","","","","","","","","","null","<p style=""color: black; font-size: 80px; padding-left: 18%; padding-right: 6%; padding-top: 2%; padding-bottom: 49%"">+</p>","null","","","","","","1048","","","","","","","","","","","","","",""
"","IG_Trial","","image-keyboard-response","127","159146","0.0-12.0-0.0-2.0-1.26","","","","","","","","","","","","","","","","","","","","","575","https://realitybending.github.io/IllusionGame/v3/stimuli/MullerLyer_3.00000_-0.18509.png","arrowdown","","","","","","","MullerLyer_3.00000_-0.18509.png","A","arrowdown","MullerLyer","3.0000000000","-0.185090000","158570","<p style=""color: black; font-size: 80px; padding-left: 18%; padding-right: 6%; padding-top: 2%; padding-bottom: 49%"">+</p>","true","MullerLyer","function () {
            return jsPsych.timelineVariable(""Illusion_Strength"")
        }","function () {
            return jsPsych.timelineVariable(""Difference"")
        }","1","27"
"","IG_FixationCross","","html-keyboard-response","128","160109","0.0-12.0-0.0-2.0-0.27","","","","","","","","","","","","","","","","","","","","","null","<p style=""color: black; font-size: 80px; padding-left: 29%; padding-right: 8%; padding-top: 0%; padding-bottom: 21%"">+</p>","null","","","","","","961","","","","","","","","","","","","","",""
"","IG_Trial","","image-keyboard-response","129","160535","0.0-12.0-0.0-2.0-1.27","","","","","","","","","","","","","","","","","","","","","426","https://realitybending.github.io/IllusionGame/v3/stimuli/MullerLyer_3.00000_0.30447.png","arrowdown","","","","","","","MullerLyer_3.00000_0.30447.png","A","arrowup","MullerLyer","3.0000000000","0.3044700000","160109","<p style=""color: black; font-size: 80px; padding-left: 29%; padding-right: 8%; padding-top: 0%; padding-bottom: 21%"">+</p>","false","MullerLyer","function () {
            return jsPsych.timelineVariable(""Illusion_Strength"")
        }","function () {
            return jsPsych.timelineVariable(""Difference"")
        }","1","28"
"","IG_FixationCross","","html-keyboard-response","130","161342","0.0-12.0-0.0-2.0-0.28","","","","","","","","","","","","","","","","","","","","","null","<p style=""color: black; font-size: 80px; padding-left: 18%; padding-right: 33%; padding-top: 28%; padding-bottom: 6%"">+</p>","null","","","","","","805","","","","","","","","","","","","","",""
"","IG_Trial","","image-keyboard-response","131","161604","0.0-12.0-0.0-2.0-1.28","","","","","","","","","","","","","","","","","","","","","261","https://realitybending.github.io/IllusionGame/v3/stimuli/MullerLyer_-3.0000_-0.18509.png","arrowup","","","","","","","MullerLyer_-3.0000_-0.18509.png","A","arrowdown","MullerLyer","-3.000000000","-0.185090000","161342","<p style=""color: black; font-size: 80px; padding-left: 18%; padding-right: 33%; padding-top: 28%; padding-bottom: 6%"">+</p>","false","MullerLyer","function () {
            return jsPsych.timelineVariable(""Illusion_Strength"")
        }","function () {
            return jsPsych.timelineVariable(""Difference"")
        }","1","29"
"","IG_FixationCross","","html-keyboard-response","132","162598","0.0-12.0-0.0-2.0-0.29","","","","","","","","","","","","","","","","","","","","","null","<p style=""color: black; font-size: 80px; padding-left: 29%; padding-right: 34%; padding-top: 41%; padding-bottom: 1%"">+</p>","null","","","","","","993","","","","","","","","","","","","","",""
"","IG_Trial","","image-keyboard-response","133","162852","0.0-12.0-0.0-2.0-1.29","","","","","","","","","","","","","","","","","","","","","254","https://realitybending.github.io/IllusionGame/v3/stimuli/MullerLyer_21.0000_0.18509.png","arrowup","","","","","","","MullerLyer_21.0000_0.18509.png","A","arrowup","MullerLyer","21.000000000","0.1850900000","162598","<p style=""color: black; font-size: 80px; padding-left: 29%; padding-right: 34%; padding-top: 41%; padding-bottom: 1%"">+</p>","true","MullerLyer","function () {
            return jsPsych.timelineVariable(""Illusion_Strength"")
        }","function () {
            return jsPsych.timelineVariable(""Difference"")
        }","1","30"
"","IG_FixationCross","","html-keyboard-response","134","163493","0.0-12.0-0.0-2.0-0.30","","","","","","","","","","","","","","","","","","","","","null","<p style=""color: black; font-size: 80px; padding-left: 39%; padding-right: 14%; padding-top: 43%; padding-bottom: 32%"">+</p>","null","","","","","","638","","","","","","","","","","","","","",""
"","IG_Trial","","image-keyboard-response","135","163504","0.0-12.0-0.0-2.0-1.30","","","","","","","","","","","","","","","","","","","","","10","https://realitybending.github.io/IllusionGame/v3/stimuli/MullerLyer_-9.0000_0.45000.png","arrowup","","","","","","","MullerLyer_-9.0000_0.45000.png","A","arrowup","MullerLyer","-9.000000000","0.4500000000","163493","<p style=""color: black; font-size: 80px; padding-left: 39%; padding-right: 14%; padding-top: 43%; padding-bottom: 32%"">+</p>","true","MullerLyer","function () {
            return jsPsych.timelineVariable(""Illusion_Strength"")
        }","function () {
            return jsPsych.timelineVariable(""Difference"")
        }","1","31"
"","IG_FixationCross","","html-keyboard-response","136","164180","0.0-12.0-0.0-2.0-0.31","","","","","","","","","","","","","","","","","","","","","null","<p style=""color: black; font-size: 80px; padding-left: 41%; padding-right: 48%; padding-top: 47%; padding-bottom: 42%"">+</p>","null","","","","","","674","","","","","","","","","","","","","",""
"","IG_Trial","","image-keyboard-response","137","164291","0.0-12.0-0.0-2.0-1.31","","","","","","","","","","","","","","","","","","","","","111","https://realitybending.github.io/IllusionGame/v3/stimuli/MullerLyer_-15.000_-0.30447.png","arrowup","","","","","","","MullerLyer_-15.000_-0.30447.png","A","arrowdown","MullerLyer","-15.00000000","-0.304470000","164180","<p style=""color: black; font-size: 80px; padding-left: 41%; padding-right: 48%; padding-top: 47%; padding-bottom: 42%"">+</p>","false","MullerLyer","function () {
            return jsPsych.timelineVariable(""Illusion_Strength"")
        }","function () {
            return jsPsych.timelineVariable(""Difference"")
        }","1","32"
"","IG_FixationCross","","html-keyboard-response","138","164968","0.0-12.0-0.0-2.0-0.32","","","","","","","","","","","","","","","","","","","","","null","<p style=""color: black; font-size: 80px; padding-left: 11%; padding-right: 25%; padding-top: 7%; padding-bottom: 41%"">+</p>","null","","","","","","676","","","","","","","","","","","","","",""
"","IG_Trial","","image-keyboard-response","139","164979","0.0-12.0-0.0-2.0-1.32","","","","","","","","","","","","","","","","","","","","","10","https://realitybending.github.io/IllusionGame/v3/stimuli/MullerLyer_21.0000_-0.08716.png","arrowup","","","","","","","MullerLyer_21.0000_-0.08716.png","A","arrowdown","MullerLyer","21.000000000","-0.087160000","164968","<p style=""color: black; font-size: 80px; padding-left: 11%; padding-right: 25%; padding-top: 7%; padding-bottom: 41%"">+</p>","false","MullerLyer","function () {
            return jsPsych.timelineVariable(""Illusion_Strength"")
        }","function () {
            return jsPsych.timelineVariable(""Difference"")
        }","1","33"
"","IG_FixationCross","","html-keyboard-response","140","165930","0.0-12.0-0.0-2.0-0.33","","","","","","","","","","","","","","","","","","","","","null","<p style=""color: black; font-size: 80px; padding-left: 9%; padding-right: 23%; padding-top: 12%; padding-bottom: 37%"">+</p>","null","","","","","","950","","","","","","","","","","","","","",""
"","IG_Trial","","image-keyboard-response","141","165957","0.0-12.0-0.0-2.0-1.33","","","","","","","","","","","","","","","","","","","","","26","https://realitybending.github.io/IllusionGame/v3/stimuli/MullerLyer_-27.000_0.18509.png","arrowup","","","","","","","MullerLyer_-27.000_0.18509.png","A","arrowup","MullerLyer","-27.00000000","0.1850900000","165930","<p style=""color: black; font-size: 80px; padding-left: 9%; padding-right: 23%; padding-top: 12%; padding-bottom: 37%"">+</p>","true","MullerLyer","function () {
            return jsPsych.timelineVariable(""Illusion_Strength"")
        }","function () {
            return jsPsych.timelineVariable(""Difference"")
        }","1","34"
"","IG_FixationCross","","html-keyboard-response","142","166889","0.0-12.0-0.0-2.0-0.34","","","","","","","","","","","","","","","","","","","","","null","<p style=""color: black; font-size: 80px; padding-left: 30%; padding-right: 27%; padding-top: 32%; padding-bottom: 26%"">+</p>","null","","","","","","930","","","","","","","","","","","","","",""
"","IG_Trial","","image-keyboard-response","143","166925","0.0-12.0-0.0-2.0-1.34","","","","","","","","","","","","","","","","","","","","","36","https://realitybending.github.io/IllusionGame/v3/stimuli/MullerLyer_-27.000_0.30447.png","arrowup","","","","","","","MullerLyer_-27.000_0.30447.png","A","arrowup","MullerLyer","-27.00000000","0.3044700000","166889","<p style=""color: black; font-size: 80px; padding-left: 30%; padding-right: 27%; padding-top: 32%; padding-bottom: 26%"">+</p>","true","MullerLyer","function () {
            return jsPsych.timelineVariable(""Illusion_Strength"")
        }","function () {
            return jsPsych.timelineVariable(""Difference"")
        }","1","35"
"","IG_FixationCross","","html-keyboard-response","144","167608","0.0-12.0-0.0-2.0-0.35","","","","","","","","","","","","","","","","","","","","","null","<p style=""color: black; font-size: 80px; padding-left: 11%; padding-right: 43%; padding-top: 30%; padding-bottom: 27%"">+</p>","null","","","","","","681","","","","","","","","","","","","","",""
"","IG_Trial","","image-keyboard-response","145","167723","0.0-12.0-0.0-2.0-1.35","","","","","","","","","","","","","","","","","","","","","114","https://realitybending.github.io/IllusionGame/v3/stimuli/MullerLyer_-15.000_-0.4500.png","arrowup","","","","","","","MullerLyer_-15.000_-0.4500.png","A","arrowdown","MullerLyer","-15.00000000","-0.450000000","167608","<p style=""color: black; font-size: 80px; padding-left: 11%; padding-right: 43%; padding-top: 30%; padding-bottom: 27%"">+</p>","false","MullerLyer","function () {
            return jsPsych.timelineVariable(""Illusion_Strength"")
        }","function () {
            return jsPsych.timelineVariable(""Difference"")
        }","1","36"
"","IG_FixationCross","","html-keyboard-response","146","168543","0.0-12.0-0.0-2.0-0.36","","","","","","","","","","","","","","","","","","","","","null","<p style=""color: black; font-size: 80px; padding-left: 21%; padding-right: 49%; padding-top: 6%; padding-bottom: 38%"">+</p>","null","","","","","","819","","","","","","","","","","","","","",""
"","IG_Trial","","image-keyboard-response","147","168916","0.0-12.0-0.0-2.0-1.36","","","","","","","","","","","","","","","","","","","","","372","https://realitybending.github.io/IllusionGame/v3/stimuli/MullerLyer_27.0000_0.45000.png","arrowup","","","","","","","MullerLyer_27.0000_0.45000.png","A","arrowup","MullerLyer","27.000000000","0.4500000000","168543","<p style=""color: black; font-size: 80px; padding-left: 21%; padding-right: 49%; padding-top: 6%; padding-bottom: 38%"">+</p>","true","MullerLyer","function () {
            return jsPsych.timelineVariable(""Illusion_Strength"")
        }","function () {
            return jsPsych.timelineVariable(""Difference"")
        }","1","37"
"","IG_FixationCross","","html-keyboard-response","148","169530","0.0-12.0-0.0-2.0-0.37","","","","","","","","","","","","","","","","","","","","","null","<p style=""color: black; font-size: 80px; padding-left: 3%; padding-right: 7%; padding-top: 13%; padding-bottom: 30%"">+</p>","null","","","","","","612","","","","","","","","","","","","","",""
"","IG_Trial","","image-keyboard-response","149","169547","0.0-12.0-0.0-2.0-1.37","","","","","","","","","","","","","","","","","","","","","16","https://realitybending.github.io/IllusionGame/v3/stimuli/MullerLyer_-27.000_-0.4500.png","arrowup","","","","","","","MullerLyer_-27.000_-0.4500.png","A","arrowdown","MullerLyer","-27.00000000","-0.450000000","169530","<p style=""color: black; font-size: 80px; padding-left: 3%; padding-right: 7%; padding-top: 13%; padding-bottom: 30%"">+</p>","false","MullerLyer","function () {
            return jsPsych.timelineVariable(""Illusion_Strength"")
        }","function () {
            return jsPsych.timelineVariable(""Difference"")
        }","1","38"
"","IG_FixationCross","","html-keyboard-response","150","170600","0.0-12.0-0.0-2.0-0.38","","","","","","","","","","","","","","","","","","","","","null","<p style=""color: black; font-size: 80px; padding-left: 8%; padding-right: 49%; padding-top: 2%; padding-bottom: 42%"">+</p>","null","","","","","","1051","","","","","","","","","","","","","",""
"","IG_Trial","","image-keyboard-response","151","170795","0.0-12.0-0.0-2.0-1.38","","","","","","","","","","","","","","","","","","","","","194","https://realitybending.github.io/IllusionGame/v3/stimuli/MullerLyer_27.0000_-0.30447.png","arrowup","","","","","","","MullerLyer_27.0000_-0.30447.png","A","arrowdown","MullerLyer","27.000000000","-0.304470000","170600","<p style=""color: black; font-size: 80px; padding-left: 8%; padding-right: 49%; padding-top: 2%; padding-bottom: 42%"">+</p>","false","MullerLyer","function () {
            return jsPsych.timelineVariable(""Illusion_Strength"")
        }","function () {
            return jsPsych.timelineVariable(""Difference"")
        }","1","39"
"","IG_FixationCross","","html-keyboard-response","152","171622","0.0-12.0-0.0-2.0-0.39","","","","","","","","","","","","","","","","","","","","","null","<p style=""color: black; font-size: 80px; padding-left: 14%; padding-right: 27%; padding-top: 7%; padding-bottom: 24%"">+</p>","null","","","","","","826","","","","","","","","","","","","","",""
"","IG_Trial","","image-keyboard-response","153","171942","0.0-12.0-0.0-2.0-1.39","","","","","","","","","","","","","","","","","","","","","320","https://realitybending.github.io/IllusionGame/v3/stimuli/MullerLyer_3.00000_0.18509.png","arrowup","","","","","","","MullerLyer_3.00000_0.18509.png","A","arrowup","MullerLyer","3.0000000000","0.1850900000","171622","<p style=""color: black; font-size: 80px; padding-left: 14%; padding-right: 27%; padding-top: 7%; padding-bottom: 24%"">+</p>","true","MullerLyer","function () {
            return jsPsych.timelineVariable(""Illusion_Strength"")
        }","function () {
            return jsPsych.timelineVariable(""Difference"")
        }","1","40"
"","IG_FixationCross","","html-keyboard-response","154","172565","0.0-12.0-0.0-2.0-0.40","","","","","","","","","","","","","","","","","","","","","null","<p style=""color: black; font-size: 80px; padding-left: 21%; padding-right: 31%; padding-top: 46%; padding-bottom: 22%"">+</p>","null","","","","","","621","","","","","","","","","","","","","",""
"","IG_Trial","","image-keyboard-response","155","172775","0.0-12.0-0.0-2.0-1.40","","","","","","","","","","","","","","","","","","","","","209","https://realitybending.github.io/IllusionGame/v3/stimuli/MullerLyer_27.0000_-0.4500.png","arrowup","","","","","","","MullerLyer_27.0000_-0.4500.png","A","arrowdown","MullerLyer","27.000000000","-0.450000000","172565","<p style=""color: black; font-size: 80px; padding-left: 21%; padding-right: 31%; padding-top: 46%; padding-bottom: 22%"">+</p>","false","MullerLyer","function () {
            return jsPsych.timelineVariable(""Illusion_Strength"")
        }","function () {
            return jsPsych.timelineVariable(""Difference"")
        }","1","41"
"","IG_FixationCross","","html-keyboard-response","156","173598","0.0-12.0-0.0-2.0-0.41","","","","","","","","","","","","","","","","","","","","","null","<p style=""color: black; font-size: 80px; padding-left: 35%; padding-right: 1%; padding-top: 44%; padding-bottom: 43%"">+</p>","null","","","","","","821","","","","","","","","","","","","","",""
"","IG_Trial","","image-keyboard-response","157","174158","0.0-12.0-0.0-2.0-1.41","","","","","","","","","","","","","","","","","","","","","560","https://realitybending.github.io/IllusionGame/v3/stimuli/MullerLyer_-3.0000_-0.4500.png","arrowup","","","","","","","MullerLyer_-3.0000_-0.4500.png","A","arrowdown","MullerLyer","-3.000000000","-0.450000000","173598","<p style=""color: black; font-size: 80px; padding-left: 35%; padding-right: 1%; padding-top: 44%; padding-bottom: 43%"">+</p>","false","MullerLyer","function () {
            return jsPsych.timelineVariable(""Illusion_Strength"")
        }","function () {
            return jsPsych.timelineVariable(""Difference"")
        }","1","42"
"","IG_FixationCross","","html-keyboard-response","158","174763","0.0-12.0-0.0-2.0-0.42","","","","","","","","","","","","","","","","","","","","","null","<p style=""color: black; font-size: 80px; padding-left: 41%; padding-right: 22%; padding-top: 15%; padding-bottom: 42%"">+</p>","null","","","","","","604","","","","","","","","","","","","","",""
"","IG_Trial","","image-keyboard-response","159","174867","0.0-12.0-0.0-2.0-1.42","","","","","","","","","","","","","","","","","","","","","104","https://realitybending.github.io/IllusionGame/v3/stimuli/MullerLyer_-3.0000_0.30447.png","arrowup","","","","","","","MullerLyer_-3.0000_0.30447.png","A","arrowup","MullerLyer","-3.000000000","0.3044700000","174763","<p style=""color: black; font-size: 80px; padding-left: 41%; padding-right: 22%; padding-top: 15%; padding-bottom: 42%"">+</p>","true","MullerLyer","function () {
            return jsPsych.timelineVariable(""Illusion_Strength"")
        }","function () {
            return jsPsych.timelineVariable(""Difference"")
        }","1","43"
"","IG_FixationCross","","html-keyboard-response","160","175588","0.0-12.0-0.0-2.0-0.43","","","","","","","","","","","","","","","","","","","","","null","<p style=""color: black; font-size: 80px; padding-left: 17%; padding-right: 19%; padding-top: 7%; padding-bottom: 46%"">+</p>","null","","","","","","719","","","","","","","","","","","","","",""
"","IG_Trial","","image-keyboard-response","161","175891","0.0-12.0-0.0-2.0-1.43","","","","","","","","","","","","","","","","","","","","","302","https://realitybending.github.io/IllusionGame/v3/stimuli/MullerLyer_9.00000_-0.30447.png","arrowup","","","","","","","MullerLyer_9.00000_-0.30447.png","A","arrowdown","MullerLyer","9.0000000000","-0.304470000","175588","<p style=""color: black; font-size: 80px; padding-left: 17%; padding-right: 19%; padding-top: 7%; padding-bottom: 46%"">+</p>","false","MullerLyer","function () {
            return jsPsych.timelineVariable(""Illusion_Strength"")
        }","function () {
            return jsPsych.timelineVariable(""Difference"")
        }","1","44"
"","IG_FixationCross","","html-keyboard-response","162","176511","0.0-12.0-0.0-2.0-0.44","","","","","","","","","","","","","","","","","","","","","null","<p style=""color: black; font-size: 80px; padding-left: 39%; padding-right: 14%; padding-top: 26%; padding-bottom: 24%"">+</p>","null","","","","","","619","","","","","","","","","","","","","",""
"","IG_Trial","","image-keyboard-response","163","176667","0.0-12.0-0.0-2.0-1.44","","","","","","","","","","","","","","","","","","","","","155","https://realitybending.github.io/IllusionGame/v3/stimuli/MullerLyer_-9.0000_-0.18509.png","arrowup","","","","","","","MullerLyer_-9.0000_-0.18509.png","A","arrowdown","MullerLyer","-9.000000000","-0.185090000","176511","<p style=""color: black; font-size: 80px; padding-left: 39%; padding-right: 14%; padding-top: 26%; padding-bottom: 24%"">+</p>","false","MullerLyer","function () {
            return jsPsych.timelineVariable(""Illusion_Strength"")
        }","function () {
            return jsPsych.timelineVariable(""Difference"")
        }","1","45"
"","IG_FixationCross","","html-keyboard-response","164","177643","0.0-12.0-0.0-2.0-0.45","","","","","","","","","","","","","","","","","","","","","null","<p style=""color: black; font-size: 80px; padding-left: 32%; padding-right: 29%; padding-top: 6%; padding-bottom: 20%"">+</p>","null","","","","","","974","","","","","","","","","","","","","",""
"","IG_Trial","","image-keyboard-response","165","177724","0.0-12.0-0.0-2.0-1.45","","","","","","","","","","","","","","","","","","","","","81","https://realitybending.github.io/IllusionGame/v3/stimuli/MullerLyer_-21.000_0.45000.png","arrowup","","","","","","","MullerLyer_-21.000_0.45000.png","A","arrowup","MullerLyer","-21.00000000","0.4500000000","177643","<p style=""color: black; font-size: 80px; padding-left: 32%; padding-right: 29%; padding-top: 6%; padding-bottom: 20%"">+</p>","true","MullerLyer","function () {
            return jsPsych.timelineVariable(""Illusion_Strength"")
        }","function () {
            return jsPsych.timelineVariable(""Difference"")
        }","1","46"
"","IG_FixationCross","","html-keyboard-response","166","178577","0.0-12.0-0.0-2.0-0.46","","","","","","","","","","","","","","","","","","","","","null","<p style=""color: black; font-size: 80px; padding-left: 14%; padding-right: 9%; padding-top: 27%; padding-bottom: 6%"">+</p>","null","","","","","","850","","","","","","","","","","","","","",""
"","IG_Trial","","image-keyboard-response","167","179108","0.0-12.0-0.0-2.0-1.46","","","","","","","","","","","","","","","","","","","","","531","https://realitybending.github.io/IllusionGame/v3/stimuli/MullerLyer_-27.000_-0.30447.png","arrowup","","","","","","","MullerLyer_-27.000_-0.30447.png","A","arrowdown","MullerLyer","-27.00000000","-0.304470000","178577","<p style=""color: black; font-size: 80px; padding-left: 14%; padding-right: 9%; padding-top: 27%; padding-bottom: 6%"">+</p>","false","MullerLyer","function () {
            return jsPsych.timelineVariable(""Illusion_Strength"")
        }","function () {
            return jsPsych.timelineVariable(""Difference"")
        }","1","47"
"","IG_FixationCross","","html-keyboard-response","168","180173","0.0-12.0-0.0-2.0-0.47","","","","","","","","","","","","","","","","","","","","","null","<p style=""color: black; font-size: 80px; padding-left: 17%; padding-right: 12%; padding-top: 37%; padding-bottom: 49%"">+</p>","null","","","","","","1063","","","","","","","","","","","","","",""
"","IG_Trial","","image-keyboard-response","169","180222","0.0-12.0-0.0-2.0-1.47","","","","","","","","","","","","","","","","","","","","","49","https://realitybending.github.io/IllusionGame/v3/stimuli/MullerLyer_15.0000_-0.30447.png","arrowdown","","","","","","","MullerLyer_15.0000_-0.30447.png","A","arrowdown","MullerLyer","15.000000000","-0.304470000","180173","<p style=""color: black; font-size: 80px; padding-left: 17%; padding-right: 12%; padding-top: 37%; padding-bottom: 49%"">+</p>","true","MullerLyer","function () {
            return jsPsych.timelineVariable(""Illusion_Strength"")
        }","function () {
            return jsPsych.timelineVariable(""Difference"")
        }","1","48"
"","IG_FixationCross","","html-keyboard-response","170","181238","0.0-12.0-0.0-2.0-0.48","","","","","","","","","","","","","","","","","","","","","null","<p style=""color: black; font-size: 80px; padding-left: 2%; padding-right: 50%; padding-top: 23%; padding-bottom: 2%"">+</p>","null","","","","","","1013","","","","","","","","","","","","","",""
"","IG_Trial","","image-keyboard-response","171","181291","0.0-12.0-0.0-2.0-1.48","","","","","","","","","","","","","","","","","","","","","53","https://realitybending.github.io/IllusionGame/v3/stimuli/MullerLyer_-15.000_0.08716.png","arrowdown","","","","","","","MullerLyer_-15.000_0.08716.png","A","arrowup","MullerLyer","-15.00000000","0.0871600000","181238","<p style=""color: black; font-size: 80px; padding-left: 2%; padding-right: 50%; padding-top: 23%; padding-bottom: 2%"">+</p>","false","MullerLyer","function () {
            return jsPsych.timelineVariable(""Illusion_Strength"")
        }","function () {
            return jsPsych.timelineVariable(""Difference"")
        }","1","49"
"","IG_FixationCross","","html-keyboard-response","172","182015","0.0-12.0-0.0-2.0-0.49","","","","","","","","","","","","","","","","","","","","","null","<p style=""color: black; font-size: 80px; padding-left: 32%; padding-right: 8%; padding-top: 27%; padding-bottom: 28%"">+</p>","null","","","","","","722","","","","","","","","","","","","","",""
"","IG_Trial","","image-keyboard-response","173","182157","0.0-12.0-0.0-2.0-1.49","","","","","","","","","","","","","","","","","","","","","142","https://realitybending.github.io/IllusionGame/v3/stimuli/MullerLyer_3.00000_-0.4500.png","arrowup","","","","","","","MullerLyer_3.00000_-0.4500.png","A","arrowdown","MullerLyer","3.0000000000","-0.450000000","182015","<p style=""color: black; font-size: 80px; padding-left: 32%; padding-right: 8%; padding-top: 27%; padding-bottom: 28%"">+</p>","false","MullerLyer","function () {
            return jsPsych.timelineVariable(""Illusion_Strength"")
        }","function () {
            return jsPsych.timelineVariable(""Difference"")
        }","1","50"
"","IG_FixationCross","","html-keyboard-response","174","183131","0.0-12.0-0.0-2.0-0.50","","","","","","","","","","","","","","","","","","","","","null","<p style=""color: black; font-size: 80px; padding-left: 27%; padding-right: 26%; padding-top: 38%; padding-bottom: 5%"">+</p>","null","","","","","","972","","","","","","","","","","","","","",""
"","IG_Trial","","image-keyboard-response","175","183271","0.0-12.0-0.0-2.0-1.50","","","","","","","","","","","","","","","","","","","","","139","https://realitybending.github.io/IllusionGame/v3/stimuli/MullerLyer_9.00000_-0.18509.png","arrowdown","","","","","","","MullerLyer_9.00000_-0.18509.png","A","arrowdown","MullerLyer","9.0000000000","-0.185090000","183131","<p style=""color: black; font-size: 80px; padding-left: 27%; padding-right: 26%; padding-top: 38%; padding-bottom: 5%"">+</p>","true","MullerLyer","function () {
            return jsPsych.timelineVariable(""Illusion_Strength"")
        }","function () {
            return jsPsych.timelineVariable(""Difference"")
        }","1","51"
"","IG_FixationCross","","html-keyboard-response","176","184228","0.0-12.0-0.0-2.0-0.51","","","","","","","","","","","","","","","","","","","","","null","<p style=""color: black; font-size: 80px; padding-left: 19%; padding-right: 32%; padding-top: 17%; padding-bottom: 28%"">+</p>","null","","","","","","955","","","","","","","","","","","","","",""
"","IG_Trial","","image-keyboard-response","177","184351","0.0-12.0-0.0-2.0-1.51","","","","","","","","","","","","","","","","","","","","","123","https://realitybending.github.io/IllusionGame/v3/stimuli/MullerLyer_-15.000_0.30447.png","arrowup","","","","","","","MullerLyer_-15.000_0.30447.png","A","arrowup","MullerLyer","-15.00000000","0.3044700000","184228","<p style=""color: black; font-size: 80px; padding-left: 19%; padding-right: 32%; padding-top: 17%; padding-bottom: 28%"">+</p>","true","MullerLyer","function () {
            return jsPsych.timelineVariable(""Illusion_Strength"")
        }","function () {
            return jsPsych.timelineVariable(""Difference"")
        }","1","52"
"","IG_FixationCross","","html-keyboard-response","178","185166","0.0-12.0-0.0-2.0-0.52","","","","","","","","","","","","","","","","","","","","","null","<p style=""color: black; font-size: 80px; padding-left: 47%; padding-right: 26%; padding-top: 12%; padding-bottom: 28%"">+</p>","null","","","","","","813","","","","","","","","","","","","","",""
"","IG_Trial","","image-keyboard-response","179","185184","0.0-12.0-0.0-2.0-1.52","","","","","","","","","","","","","","","","","","","","","17","https://realitybending.github.io/IllusionGame/v3/stimuli/MullerLyer_-15.000_0.18509.png","arrowup","","","","","","","MullerLyer_-15.000_0.18509.png","A","arrowup","MullerLyer","-15.00000000","0.1850900000","185166","<p style=""color: black; font-size: 80px; padding-left: 47%; padding-right: 26%; padding-top: 12%; padding-bottom: 28%"">+</p>","true","MullerLyer","function () {
            return jsPsych.timelineVariable(""Illusion_Strength"")
        }","function () {
            return jsPsych.timelineVariable(""Difference"")
        }","1","53"
"","IG_FixationCross","","html-keyboard-response","180","186144","0.0-12.0-0.0-2.0-0.53","","","","","","","","","","","","","","","","","","","","","null","<p style=""color: black; font-size: 80px; padding-left: 24%; padding-right: 2%; padding-top: 22%; padding-bottom: 15%"">+</p>","null","","","","","","958","","","","","","","","","","","","","",""
"","IG_Trial","","image-keyboard-response","181","186185","0.0-12.0-0.0-2.0-1.53","","","","","","","","","","","","","","","","","","","","","40","https://realitybending.github.io/IllusionGame/v3/stimuli/MullerLyer_15.0000_-0.08716.png","arrowup","","","","","","","MullerLyer_15.0000_-0.08716.png","A","arrowdown","MullerLyer","15.000000000","-0.087160000","186144","<p style=""color: black; font-size: 80px; padding-left: 24%; padding-right: 2%; padding-top: 22%; padding-bottom: 15%"">+</p>","false","MullerLyer","function () {
            return jsPsych.timelineVariable(""Illusion_Strength"")
        }","function () {
            return jsPsych.timelineVariable(""Difference"")
        }","1","54"
"","IG_FixationCross","","html-keyboard-response","182","186840","0.0-12.0-0.0-2.0-0.54","","","","","","","","","","","","","","","","","","","","","null","<p style=""color: black; font-size: 80px; padding-left: 31%; padding-right: 14%; padding-top: 13%; padding-bottom: 19%"">+</p>","null","","","","","","654","","","","","","","","","","","","","",""
"","IG_Trial","","image-keyboard-response","183","186905","0.0-12.0-0.0-2.0-1.54","","","","","","","","","","","","","","","","","","","","","64","https://realitybending.github.io/IllusionGame/v3/stimuli/MullerLyer_21.0000_-0.4500.png","arrowdown","","","","","","","MullerLyer_21.0000_-0.4500.png","A","arrowdown","MullerLyer","21.000000000","-0.450000000","186840","<p style=""color: black; font-size: 80px; padding-left: 31%; padding-right: 14%; padding-top: 13%; padding-bottom: 19%"">+</p>","true","MullerLyer","function () {
            return jsPsych.timelineVariable(""Illusion_Strength"")
        }","function () {
            return jsPsych.timelineVariable(""Difference"")
        }","1","55"
"","IG_FixationCross","","html-keyboard-response","184","187855","0.0-12.0-0.0-2.0-0.55","","","","","","","","","","","","","","","","","","","","","null","<p style=""color: black; font-size: 80px; padding-left: 12%; padding-right: 27%; padding-top: 45%; padding-bottom: 24%"">+</p>","null","","","","","","948","","","","","","","","","","","","","",""
"","IG_Trial","","image-keyboard-response","185","187917","0.0-12.0-0.0-2.0-1.55","","","","","","","","","","","","","","","","","","","","","62","https://realitybending.github.io/IllusionGame/v3/stimuli/MullerLyer_9.00000_0.08716.png","arrowdown","","","","","","","MullerLyer_9.00000_0.08716.png","A","arrowup","MullerLyer","9.0000000000","0.0871600000","187855","<p style=""color: black; font-size: 80px; padding-left: 12%; padding-right: 27%; padding-top: 45%; padding-bottom: 24%"">+</p>","false","MullerLyer","function () {
            return jsPsych.timelineVariable(""Illusion_Strength"")
        }","function () {
            return jsPsych.timelineVariable(""Difference"")
        }","1","56"
"","IG_FixationCross","","html-keyboard-response","186","189002","0.0-12.0-0.0-2.0-0.56","","","","","","","","","","","","","","","","","","","","","null","<p style=""color: black; font-size: 80px; padding-left: 16%; padding-right: 45%; padding-top: 20%; padding-bottom: 8%"">+</p>","null","","","","","","1083","","","","","","","","","","","","","",""
"","IG_Trial","","image-keyboard-response","187","189896","0.0-12.0-0.0-2.0-1.56","","","","","","","","","","","","","","","","","","","","","894","https://realitybending.github.io/IllusionGame/v3/stimuli/MullerLyer_15.0000_-0.18509.png","arrowup","","","","","","","MullerLyer_15.0000_-0.18509.png","A","arrowdown","MullerLyer","15.000000000","-0.185090000","189002","<p style=""color: black; font-size: 80px; padding-left: 16%; padding-right: 45%; padding-top: 20%; padding-bottom: 8%"">+</p>","false","MullerLyer","function () {
            return jsPsych.timelineVariable(""Illusion_Strength"")
        }","function () {
            return jsPsych.timelineVariable(""Difference"")
        }","1","57"
