"success","screen","group","trial_type","trial_index","time_elapsed","internal_node_id","label_stranger","label_friend","width","height","webaudio","browser","browser_version","mobile","os","fullscreen","vsync_rate","webcam","microphone","date","time","screen_height","screen_width","researcher","sona_id","prolific_id","study_id","session_id","rt","stimulus","response","question_order","timeout","failed_images","failed_audio","failed_video","trial_duration","shape","trial_number","answer","answer_correct","correct","condition","label_condition","block_number","file","block","correct_response","Illusion_Type","Illusion_Strength","Illusion_Difference","isi","fixation_cross","type","illusion_strength","illusion_difference"
"true","fullscreen","psychedelic_society","fullscreen","0","2516","0.0-0.0","Sting","Maxime","","","","","","","","","","","","","","","","","","","","","","","","","","","","","","","","","","","","","","","","","","","","","","","",""
"","browser_info","","browser-check","1","3532","0.0-1.0","Sting","Maxime","1280","824","true","chrome","109.0.5414","false","Windows 8.1","true","60.22","false","false","27/04/2024","23:52:13","824","1280","","","","","","","","","","","","","","","","","","","","","","","","","","","","","","","","",""
"","consent","","html-button-response","2","160673344","0.0-2.0","Sting","Maxime","","","","","","","","","","","","","","","","","","","","","160669809","<img src='https://u-paris.fr/wp-content/uploads/2022/03/Universite_Paris-Cite-logo.jpeg' width='300px' align='right'/><br><br><br><br><br><h1>Consentement éclairé</h1><p align='left'>Dans cette étude, vous allez devoir compléter deux tâches sous forme de jeux pour mesurer (i) <b>vos capacités d'associations</b> et (ii) votre <b>sensibilité aux illusions visuelles</b>.</p><p align='left'>Vous aurez aussi à compléter trois questionnaires à propos de (i) <b>votre fonctionnement psychologique</b> et (ii) votre <b>dernière expérience avec une substance psychédélique classique</b>.</p><p align='left'>L'étude dure environ 40 minutes au total. Nous vous demandons de veiller à bien rester concentré(e) et à fournir des réponses authentiques.</p><p align='left'>Les jeux se déroulent en plusieurs parties et sont entrecoupés de questionnaires, c'est normal, merci de poursuivre l'étude jusqu'à l'écran confirmant l'enregistrement de vos données.</p><p align='left'>Votre participation à cette recherche est confidentielle. <b>Vos réponses seront totalement anonymisées</b>, et votre adresse IP ni aucune autres informations identifiantes ne sont collectées.</p><p align='left'>Vos données sont essentielles pour nous. Elles contribuent aux avancées scientifiques sur les thérapies-assistées par psychédéliques. <b>En participant, vous acceptez de suivre les instructions et de fournir des réponses honnêtes.</b> Si vous ne souhaitez pas participer à cette étude, vous pouvez simplement fermer votre navigateur.</p><p align='left'>Vous avez également le droit de vous retirer de l'étude à n'importe quel moment, pour cela, vous pouvez simplement fermer votre navigateur web.</p><p align='left'><br><sub><sup>Si vous avez des questions sur le projet, veuillez contacter Baptiste Fauvel (baptiste.fauvel@u-paris.fr). Cette étude a été expertisée et validée par le comité d'éthique de l'université Paris Cité.</sup></sub></p>","0","","","","","","","","","","","","","","","","","","","","","","","","",""
"","demographics_1","","survey-multi-choice","3","160689861","0.0-3.0-0.0","Sting","Maxime","","","","","","","","","","","","","","","","","","","","","16515","","{""sex"":""Homme"",""student"":""Non"",""education"":""Université (master) <sub><sup>ou équivalent</sup></sub>"",""language"":""Langue maternelle""}","[0,1,2,3]","","","","","","","","","","","","","","","","","","","","","","","",""
"","demographics_2","","survey-text","4","160696045","0.0-3.0-1.0","Sting","Maxime","","","","","","","","","","","","","","","","","","","","","6179","","{""age"":""64""}","","","","","","","","","","","","","","","","","","","","","","","","",""
"","","","html-button-response","5","160714752","0.0-4.0","Sting","Maxime","","","","","","","","","","","","","","","","","","","","","18707","<p style=""font-size:18px; color:black;"">Avez-vous <b>déjà</b> été diagnostiqué(e) pour une des pathologies suivantes ?</p>","0","","","","","","","","","","","","","","","","","","","","","","","","",""
"","","","survey-text","6","160722712","0.0-5.0-0.0","Sting","Maxime","","","","","","","","","","","","","","","","","","","","","7957","","{""Q0"":""alcool""}","","","","","","","","","","","","","","","","","","","","","","","","",""
"","","","html-button-response","7","160732360","0.0-6.0","Sting","Maxime","","","","","","","","","","","","","","","","","","","","","9647","<p style=""font-size:18px; color:black;"">Etes-vous <b>en ce moment</b> diagnostiqué(e) pour une des pathologies suivantes?</p>","0","","","","","","","","","","","","","","","","","","","","","","","","",""
"","","","survey-text","8","160763414","0.0-7.0-0.0","Sting","Maxime","","","","","","","","","","","","","","","","","","","","","31052","","{""Q0"":""Cirrhose""}","","","","","","","","","","","","","","","","","","","","","","","","",""
"","","","html-button-response","9","160767356","0.0-8.0","Sting","Maxime","","","","","","","","","","","","","","","","","","","","","3941","<p style=""font-size:18px; color:black;"">Méditez-vous régulièrement? E.g. au moins une fois par semaine</p>","1","","","","","","","","","","","","","","","","","","","","","","","","",""
"","","","survey-multi-choice","10","160785045","0.0-10.0-0.0","Sting","Maxime","","","","","","","","","","","","","","","","","","","","","17686","","{""psych_freq"":""Plus de 100 fois""}","[0]","","","","","","","","","","","","","","","","","","","","","","","",""
"","","","html-button-response","11","160793928","0.0-10.0-1.0","Sting","Maxime","","","","","","","","","","","","","","","","","","","","","8880","<p style=""font-size:18px; color:black;"">Avez-vous consommé une substance psychédélique classique (e.g., LSD, champignons à psilocybe, ayahuasca) <b>au cours du dernier mois</b> ?</p>","1","","","","","","","","","","","","","","","","","","","","","","","","",""
"","","","survey-text","12","160807688","0.0-10.0-2.0","Sting","Maxime","","","","","","","","","","","","","","","","","","","","","13758","","{""Q0"":""64""}","","","","","","","","","","","","","","","","","","","","","","","","",""
"","","","survey-multi-choice","13","160837579","0.0-10.0-3.0","Sting","Maxime","","","","","","","","","","","","","","","","","","","","","29889","","{""intention"":""Thérapeutique"",""substance"":""Psilocybine/champignons/truffes"",""dose"":""Très élevée""}","[0,1,2]","","","","","","","","","","","","","","","","","","","","","","","",""
"","","","survey-multi-choice","14","160849804","0.0-10.0-4.0","Sting","Maxime","","","","","","","","","","","","","","","","","","","","","12222","","{""cannabis"":""Non"",""Alcool"":""Non"",""stimulants"":""Non"",""MDMA"":""Non"",""Opiacés"":""Non"",""Dissociatifs"":""Non""}","[0,1,2,3,4,5]","","","","","","","","","","","","","","","","","","","","","","","",""
"","questionnaire_meq_psyche_society","","survey-likert","15","160985131","0.0-11.0","Sting","Maxime","","","","","","","","","","","","","","","","","","","","","135320","","{""Transcendence_1"":5,""PositiveMood_2"":4,""Ineffability_3"":5,""Mystical_4"":4,""Mystical_5"":5,""Mystical_6"":3,""Transcendence_7"":5,""PositiveMood_8"":4,""Mystical_9"":4,""Ineffability_10"":5,""Transcendence_11"":0,""PositiveMood_12"":4,""Transcendence_13"":5,""Mystical_14"":5,""Mystical_15"":5,""Mystical_16"":4,""PositiveMood_17"":5,""Mystical_18"":4,""Transcendence_19"":4,""Mystical_20"":4,""Mystical_21"":4,""Transcendence_22"":5,""Mystical_23"":4,""Mystical_24"":4,""Mystical_25"":"""",""Mystical_26"":5,""PositiveMood_27"":4,""Mystical_28"":4,""Ineffability_29"":5,""PositiveMood_30"":5}","[0,1,2,3,4,5,6,7,8,9,10,11,12,13,14,15,16,17,18,19,20,21,22,23,24,25,26,27,28,29]","","","","","","","","","","","","","","","","","","","","","","","",""
"true","","","preload","16","160985380","0.0-12.0","Sting","Maxime","","","","","","","","","","","","","","","","","","","","","","","","","false","[]","[]","[]","","","","","","","","","","","","","","","","","","","",""
"","SAT_instructions_general_fr","","html-button-response","17","160999747","0.0-13.0","Sting","Maxime","","","","","","","","","","","","","","","","","","","","","14366","<h1>Jeu d'associations forme-personne</h1><p>Dans ce jeu, vous allez devoir associer des <b>formes</b> à une <b>personne</b> (vous, votre meilleur ami et une célébrité).</p><p>Pour personnaliser ce jeu, vous allez d'abord devoir choisir un ami et une célébrité que vous connaissez.</p>","0","","","","","","","","","","","","","","","","","","","","","","","","",""
"","SAT_strangerlabel_fr","","survey-multi-choice","18","161014701","0.0-14.0","Sting","Maxime","","","","","","","","","","","","","","","","","","","","","14953","","{""label_stranger"":""Sting""}","[0]","","","","","","","","","","","","","","","","","","","","","","","",""
"","SAT_friendlabel_fr","","survey-text","19","161023503","0.0-15.0","Sting","Maxime","","","","","","","","","","","","","","","","","","","","","8797","","{""label_friend"":""Maxime""}","","","","","","","","","","","","","","","","","","","","","","","","",""
"","SAT_instructions_practice_fr","","html-button-response","20","161053505","0.0-16.0","Sting","Maxime","","","","","","","","","","","","","","","","","","","","","30000","<h1>Entraînement</h1><p>Chaque personne (i.e., Vous, meilleur ami, célébrité) va être associée à une forme spécifique (cercle, carré ou triangle)</p><p>Pendant la phase d'entraînement, une forme sera affichée avec les trois personnes.</p><p>Vous devrez sélectionner la personne qui correspond à la forme présentée aussi rapidement et précisément que possible</p><p>Si la personne correcte est à <b>gauche</b>, appuyez sur <b>'v'</b>.</p><p>Si la personne correcte est au <b>milieu</b>, appuyez sur <b>'b'</b>.</p><p>Si la personne correcte est à <b>droite</b>, appuyez sur <b>'n'</b>.</p><br>","0","","","","","","","","","","","","","","","","","","","","","","","","",""
"","SAT_assignmentscreen","","html-button-response","21","161065283","0.0-17.0","Sting","Maxime","","","","","","","","","","","","","","","","","","","","","11777","<h1>Instructions</h1><div id ='align-middle'><b>Vous</b> serez représenté(e) par un  <b>triangle</b>  <img src= https://realitybending.github.io/IllusionGameSelfAssociation/experiment/SelfAssociation/stimuli/triangle.png height=40></img></div><br><div id ='align-middle'><b>Sting</b> sera représenté(e) par un  <b>carré</b>  <img src= https://realitybending.github.io/IllusionGameSelfAssociation/experiment/SelfAssociation/stimuli/carré.png height=40></img></div><br><div id = 'align-middle'><b>Maxime</b> sera représenté(e) par un  <b>cercle</b>  <img src= https://realitybending.github.io/IllusionGameSelfAssociation/experiment/SelfAssociation/stimuli/cercle.png height=40></img></div><br>","0","","","","","","","","","","","","","","","","","","","","","","","","",""
"","sat_fixationcross","","html-keyboard-response","22","161065799","0.0-18.0-0.0","Sting","Maxime","","","","","","","","","","","","","","","","","","","","","null","<div  style='font-size:500%; position:fixed; text-align: center; top:50%; bottom:50%; right:20%; left:20%'>+</div>","null","","","","","","500","","","","","","","","","","","","","","","","","","",""
"","sat_practicetrial","","html-keyboard-response","23","161071810","0.0-18.0-1.0","Sting","Maxime","","","","","","","","","","","","","","","","","","","","","null","<div style='bottom:60%; right:20%; left:20%; position:fixed'><img src=https://realitybending.github.io/IllusionGameSelfAssociation/experiment/SelfAssociation/stimuli/carré.png height=20%></img></div><div  style='font-size:500%; position:fixed; text-align: center; top:50%; bottom:50%; right:20%; left:20%'>+</div><div style = ""font-size:300%; text-align: center; position:fixed; top:70%; left:20%""><b>Vous</b></br></br></br></br>v</div><div style = ""font-size:300%; text-align: center; position:fixed; top:70%; right:20%; left:20%""><b>Sting</b></br></br></br></br>b</div><div style = ""font-size:300%; text-align: center; position:fixed; top:70%; right:20%""><b>Maxime</b></br></br></br></br>n</div>","null","","","","","","","carré","1","null","Sting","false","Stranger","","","","","","","","","","","","",""
"","sat_feedback","","html-keyboard-response","24","161072311","0.0-18.0-2.0","Sting","Maxime","","","","","","","","","","","","","","","","","","","","","null","<p style = 'font-size: 300%; color:blue'>Trop long!</p>","null","","","","","","","","","","","","","","","","","","","","","","","","",""
"","sat_fixationcross","","html-keyboard-response","25","161072824","0.0-18.0-0.1","Sting","Maxime","","","","","","","","","","","","","","","","","","","","","null","<div  style='font-size:500%; position:fixed; text-align: center; top:50%; bottom:50%; right:20%; left:20%'>+</div>","null","","","","","","500","","","","","","","","","","","","","","","","","","",""
"","sat_practicetrial","","html-keyboard-response","26","161078830","0.0-18.0-1.1","Sting","Maxime","","","","","","","","","","","","","","","","","","","","","null","<div style='bottom:60%; right:20%; left:20%; position:fixed'><img src=https://realitybending.github.io/IllusionGameSelfAssociation/experiment/SelfAssociation/stimuli/triangle.png height=20%></img></div><div  style='font-size:500%; position:fixed; text-align: center; top:50%; bottom:50%; right:20%; left:20%'>+</div><div style = ""font-size:300%; text-align: center; position:fixed; top:70%; left:20%""><b>Vous</b></br></br></br></br>v</div><div style = ""font-size:300%; text-align: center; position:fixed; top:70%; right:20%; left:20%""><b>Sting</b></br></br></br></br>b</div><div style = ""font-size:300%; text-align: center; position:fixed; top:70%; right:20%""><b>Maxime</b></br></br></br></br>n</div>","null","","","","","","","triangle","2","null","Vous","false","Self","","","","","","","","","","","","",""
"","sat_feedback","","html-keyboard-response","27","161079341","0.0-18.0-2.1","Sting","Maxime","","","","","","","","","","","","","","","","","","","","","null","<p style = 'font-size: 300%; color:blue'>Trop long!</p>","null","","","","","","","","","","","","","","","","","","","","","","","","",""
"","sat_fixationcross","","html-keyboard-response","28","161079846","0.0-18.0-0.2","Sting","Maxime","","","","","","","","","","","","","","","","","","","","","null","<div  style='font-size:500%; position:fixed; text-align: center; top:50%; bottom:50%; right:20%; left:20%'>+</div>","null","","","","","","500","","","","","","","","","","","","","","","","","","",""
"","sat_practicetrial","","html-keyboard-response","29","161085868","0.0-18.0-1.2","Sting","Maxime","","","","","","","","","","","","","","","","","","","","","null","<div style='bottom:60%; right:20%; left:20%; position:fixed'><img src=https://realitybending.github.io/IllusionGameSelfAssociation/experiment/SelfAssociation/stimuli/carré.png height=20%></img></div><div  style='font-size:500%; position:fixed; text-align: center; top:50%; bottom:50%; right:20%; left:20%'>+</div><div style = ""font-size:300%; text-align: center; position:fixed; top:70%; left:20%""><b>Vous</b></br></br></br></br>v</div><div style = ""font-size:300%; text-align: center; position:fixed; top:70%; right:20%; left:20%""><b>Sting</b></br></br></br></br>b</div><div style = ""font-size:300%; text-align: center; position:fixed; top:70%; right:20%""><b>Maxime</b></br></br></br></br>n</div>","null","","","","","","","carré","3","null","Sting","false","Stranger","","","","","","","","","","","","",""
"","sat_feedback","","html-keyboard-response","30","161086387","0.0-18.0-2.2","Sting","Maxime","","","","","","","","","","","","","","","","","","","","","null","<p style = 'font-size: 300%; color:blue'>Trop long!</p>","null","","","","","","","","","","","","","","","","","","","","","","","","",""
"","sat_fixationcross","","html-keyboard-response","31","161086894","0.0-18.0-0.3","Sting","Maxime","","","","","","","","","","","","","","","","","","","","","null","<div  style='font-size:500%; position:fixed; text-align: center; top:50%; bottom:50%; right:20%; left:20%'>+</div>","null","","","","","","500","","","","","","","","","","","","","","","","","","",""
"","sat_practicetrial","","html-keyboard-response","32","161091606","0.0-18.0-1.3","Sting","Maxime","","","","","","","","","","","","","","","","","","","","","4711","<div style='bottom:60%; right:20%; left:20%; position:fixed'><img src=https://realitybending.github.io/IllusionGameSelfAssociation/experiment/SelfAssociation/stimuli/cercle.png height=20%></img></div><div  style='font-size:500%; position:fixed; text-align: center; top:50%; bottom:50%; right:20%; left:20%'>+</div><div style = ""font-size:300%; text-align: center; position:fixed; top:70%; left:20%""><b>Vous</b></br></br></br></br>v</div><div style = ""font-size:300%; text-align: center; position:fixed; top:70%; right:20%; left:20%""><b>Sting</b></br></br></br></br>b</div><div style = ""font-size:300%; text-align: center; position:fixed; top:70%; right:20%""><b>Maxime</b></br></br></br></br>n</div>","n","","","","","","","cercle","4","Maxime","Maxime","true","Friend","","","","","","","","","","","","",""
"","sat_feedback","","html-keyboard-response","33","161092121","0.0-18.0-2.3","Sting","Maxime","","","","","","","","","","","","","","","","","","","","","null","<p style = 'font-size: 300%; color:green'>Correct!</p>","null","","","","","","","","","","","","","","","","","","","","","","","","",""
"","sat_fixationcross","","html-keyboard-response","34","161092631","0.0-18.0-0.4","Sting","Maxime","","","","","","","","","","","","","","","","","","","","","null","<div  style='font-size:500%; position:fixed; text-align: center; top:50%; bottom:50%; right:20%; left:20%'>+</div>","null","","","","","","500","","","","","","","","","","","","","","","","","","",""
"","sat_practicetrial","","html-keyboard-response","35","161095692","0.0-18.0-1.4","Sting","Maxime","","","","","","","","","","","","","","","","","","","","","3060","<div style='bottom:60%; right:20%; left:20%; position:fixed'><img src=https://realitybending.github.io/IllusionGameSelfAssociation/experiment/SelfAssociation/stimuli/cercle.png height=20%></img></div><div  style='font-size:500%; position:fixed; text-align: center; top:50%; bottom:50%; right:20%; left:20%'>+</div><div style = ""font-size:300%; text-align: center; position:fixed; top:70%; left:20%""><b>Vous</b></br></br></br></br>v</div><div style = ""font-size:300%; text-align: center; position:fixed; top:70%; right:20%; left:20%""><b>Sting</b></br></br></br></br>b</div><div style = ""font-size:300%; text-align: center; position:fixed; top:70%; right:20%""><b>Maxime</b></br></br></br></br>n</div>","n","","","","","","","cercle","5","Maxime","Maxime","true","Friend","","","","","","","","","","","","",""
"","sat_feedback","","html-keyboard-response","36","161096197","0.0-18.0-2.4","Sting","Maxime","","","","","","","","","","","","","","","","","","","","","null","<p style = 'font-size: 300%; color:green'>Correct!</p>","null","","","","","","","","","","","","","","","","","","","","","","","","",""
"","sat_fixationcross","","html-keyboard-response","37","161096701","0.0-18.0-0.5","Sting","Maxime","","","","","","","","","","","","","","","","","","","","","null","<div  style='font-size:500%; position:fixed; text-align: center; top:50%; bottom:50%; right:20%; left:20%'>+</div>","null","","","","","","500","","","","","","","","","","","","","","","","","","",""
"","sat_practicetrial","","html-keyboard-response","38","161099868","0.0-18.0-1.5","Sting","Maxime","","","","","","","","","","","","","","","","","","","","","3166","<div style='bottom:60%; right:20%; left:20%; position:fixed'><img src=https://realitybending.github.io/IllusionGameSelfAssociation/experiment/SelfAssociation/stimuli/carré.png height=20%></img></div><div  style='font-size:500%; position:fixed; text-align: center; top:50%; bottom:50%; right:20%; left:20%'>+</div><div style = ""font-size:300%; text-align: center; position:fixed; top:70%; left:20%""><b>Vous</b></br></br></br></br>v</div><div style = ""font-size:300%; text-align: center; position:fixed; top:70%; right:20%; left:20%""><b>Sting</b></br></br></br></br>b</div><div style = ""font-size:300%; text-align: center; position:fixed; top:70%; right:20%""><b>Maxime</b></br></br></br></br>n</div>","b","","","","","","","carré","6","Sting","Sting","true","Stranger","","","","","","","","","","","","",""
"","sat_feedback","","html-keyboard-response","39","161100385","0.0-18.0-2.5","Sting","Maxime","","","","","","","","","","","","","","","","","","","","","null","<p style = 'font-size: 300%; color:green'>Correct!</p>","null","","","","","","","","","","","","","","","","","","","","","","","","",""
"","sat_fixationcross","","html-keyboard-response","40","161100886","0.0-18.0-0.6","Sting","Maxime","","","","","","","","","","","","","","","","","","","","","null","<div  style='font-size:500%; position:fixed; text-align: center; top:50%; bottom:50%; right:20%; left:20%'>+</div>","null","","","","","","500","","","","","","","","","","","","","","","","","","",""
"","sat_practicetrial","","html-keyboard-response","41","161103092","0.0-18.0-1.6","Sting","Maxime","","","","","","","","","","","","","","","","","","","","","2206","<div style='bottom:60%; right:20%; left:20%; position:fixed'><img src=https://realitybending.github.io/IllusionGameSelfAssociation/experiment/SelfAssociation/stimuli/triangle.png height=20%></img></div><div  style='font-size:500%; position:fixed; text-align: center; top:50%; bottom:50%; right:20%; left:20%'>+</div><div style = ""font-size:300%; text-align: center; position:fixed; top:70%; left:20%""><b>Vous</b></br></br></br></br>v</div><div style = ""font-size:300%; text-align: center; position:fixed; top:70%; right:20%; left:20%""><b>Sting</b></br></br></br></br>b</div><div style = ""font-size:300%; text-align: center; position:fixed; top:70%; right:20%""><b>Maxime</b></br></br></br></br>n</div>","v","","","","","","","triangle","7","Vous","Vous","true","Self","","","","","","","","","","","","",""
"","sat_feedback","","html-keyboard-response","42","161103601","0.0-18.0-2.6","Sting","Maxime","","","","","","","","","","","","","","","","","","","","","null","<p style = 'font-size: 300%; color:green'>Correct!</p>","null","","","","","","","","","","","","","","","","","","","","","","","","",""
"","sat_fixationcross","","html-keyboard-response","43","161104105","0.0-18.0-0.7","Sting","Maxime","","","","","","","","","","","","","","","","","","","","","null","<div  style='font-size:500%; position:fixed; text-align: center; top:50%; bottom:50%; right:20%; left:20%'>+</div>","null","","","","","","500","","","","","","","","","","","","","","","","","","",""
"","sat_practicetrial","","html-keyboard-response","44","161107004","0.0-18.0-1.7","Sting","Maxime","","","","","","","","","","","","","","","","","","","","","2898","<div style='bottom:60%; right:20%; left:20%; position:fixed'><img src=https://realitybending.github.io/IllusionGameSelfAssociation/experiment/SelfAssociation/stimuli/triangle.png height=20%></img></div><div  style='font-size:500%; position:fixed; text-align: center; top:50%; bottom:50%; right:20%; left:20%'>+</div><div style = ""font-size:300%; text-align: center; position:fixed; top:70%; left:20%""><b>Vous</b></br></br></br></br>v</div><div style = ""font-size:300%; text-align: center; position:fixed; top:70%; right:20%; left:20%""><b>Sting</b></br></br></br></br>b</div><div style = ""font-size:300%; text-align: center; position:fixed; top:70%; right:20%""><b>Maxime</b></br></br></br></br>n</div>","v","","","","","","","triangle","8","Vous","Vous","true","Self","","","","","","","","","","","","",""
"","sat_feedback","","html-keyboard-response","45","161107523","0.0-18.0-2.7","Sting","Maxime","","","","","","","","","","","","","","","","","","","","","null","<p style = 'font-size: 300%; color:green'>Correct!</p>","null","","","","","","","","","","","","","","","","","","","","","","","","",""
"","sat_fixationcross","","html-keyboard-response","46","161108041","0.0-18.0-0.8","Sting","Maxime","","","","","","","","","","","","","","","","","","","","","null","<div  style='font-size:500%; position:fixed; text-align: center; top:50%; bottom:50%; right:20%; left:20%'>+</div>","null","","","","","","500","","","","","","","","","","","","","","","","","","",""
"","sat_practicetrial","","html-keyboard-response","47","161110524","0.0-18.0-1.8","Sting","Maxime","","","","","","","","","","","","","","","","","","","","","2482","<div style='bottom:60%; right:20%; left:20%; position:fixed'><img src=https://realitybending.github.io/IllusionGameSelfAssociation/experiment/SelfAssociation/stimuli/cercle.png height=20%></img></div><div  style='font-size:500%; position:fixed; text-align: center; top:50%; bottom:50%; right:20%; left:20%'>+</div><div style = ""font-size:300%; text-align: center; position:fixed; top:70%; left:20%""><b>Vous</b></br></br></br></br>v</div><div style = ""font-size:300%; text-align: center; position:fixed; top:70%; right:20%; left:20%""><b>Sting</b></br></br></br></br>b</div><div style = ""font-size:300%; text-align: center; position:fixed; top:70%; right:20%""><b>Maxime</b></br></br></br></br>n</div>","n","","","","","","","cercle","9","Maxime","Maxime","true","Friend","","","","","","","","","","","","",""
"","sat_feedback","","html-keyboard-response","48","161111039","0.0-18.0-2.8","Sting","Maxime","","","","","","","","","","","","","","","","","","","","","null","<p style = 'font-size: 300%; color:green'>Correct!</p>","null","","","","","","","","","","","","","","","","","","","","","","","","",""
"","sat_fixationcross","","html-keyboard-response","49","161111541","0.0-18.0-0.9","Sting","Maxime","","","","","","","","","","","","","","","","","","","","","null","<div  style='font-size:500%; position:fixed; text-align: center; top:50%; bottom:50%; right:20%; left:20%'>+</div>","null","","","","","","500","","","","","","","","","","","","","","","","","","",""
"","sat_practicetrial","","html-keyboard-response","50","161113468","0.0-18.0-1.9","Sting","Maxime","","","","","","","","","","","","","","","","","","","","","1926","<div style='bottom:60%; right:20%; left:20%; position:fixed'><img src=https://realitybending.github.io/IllusionGameSelfAssociation/experiment/SelfAssociation/stimuli/triangle.png height=20%></img></div><div  style='font-size:500%; position:fixed; text-align: center; top:50%; bottom:50%; right:20%; left:20%'>+</div><div style = ""font-size:300%; text-align: center; position:fixed; top:70%; left:20%""><b>Vous</b></br></br></br></br>v</div><div style = ""font-size:300%; text-align: center; position:fixed; top:70%; right:20%; left:20%""><b>Sting</b></br></br></br></br>b</div><div style = ""font-size:300%; text-align: center; position:fixed; top:70%; right:20%""><b>Maxime</b></br></br></br></br>n</div>","v","","","","","","","triangle","10","Vous","Vous","true","Self","","","","","","","","","","","","",""
"","sat_feedback","","html-keyboard-response","51","161113974","0.0-18.0-2.9","Sting","Maxime","","","","","","","","","","","","","","","","","","","","","null","<p style = 'font-size: 300%; color:green'>Correct!</p>","null","","","","","","","","","","","","","","","","","","","","","","","","",""
"","sat_fixationcross","","html-keyboard-response","52","161114477","0.0-18.0-0.10","Sting","Maxime","","","","","","","","","","","","","","","","","","","","","null","<div  style='font-size:500%; position:fixed; text-align: center; top:50%; bottom:50%; right:20%; left:20%'>+</div>","null","","","","","","500","","","","","","","","","","","","","","","","","","",""
"","sat_practicetrial","","html-keyboard-response","53","161116076","0.0-18.0-1.10","Sting","Maxime","","","","","","","","","","","","","","","","","","","","","1598","<div style='bottom:60%; right:20%; left:20%; position:fixed'><img src=https://realitybending.github.io/IllusionGameSelfAssociation/experiment/SelfAssociation/stimuli/triangle.png height=20%></img></div><div  style='font-size:500%; position:fixed; text-align: center; top:50%; bottom:50%; right:20%; left:20%'>+</div><div style = ""font-size:300%; text-align: center; position:fixed; top:70%; left:20%""><b>Vous</b></br></br></br></br>v</div><div style = ""font-size:300%; text-align: center; position:fixed; top:70%; right:20%; left:20%""><b>Sting</b></br></br></br></br>b</div><div style = ""font-size:300%; text-align: center; position:fixed; top:70%; right:20%""><b>Maxime</b></br></br></br></br>n</div>","v","","","","","","","triangle","11","Vous","Vous","true","Self","","","","","","","","","","","","",""
"","sat_feedback","","html-keyboard-response","54","161116595","0.0-18.0-2.10","Sting","Maxime","","","","","","","","","","","","","","","","","","","","","null","<p style = 'font-size: 300%; color:green'>Correct!</p>","null","","","","","","","","","","","","","","","","","","","","","","","","",""
"","sat_fixationcross","","html-keyboard-response","55","161117103","0.0-18.0-0.11","Sting","Maxime","","","","","","","","","","","","","","","","","","","","","null","<div  style='font-size:500%; position:fixed; text-align: center; top:50%; bottom:50%; right:20%; left:20%'>+</div>","null","","","","","","500","","","","","","","","","","","","","","","","","","",""
"","sat_practicetrial","","html-keyboard-response","56","161118756","0.0-18.0-1.11","Sting","Maxime","","","","","","","","","","","","","","","","","","","","","1652","<div style='bottom:60%; right:20%; left:20%; position:fixed'><img src=https://realitybending.github.io/IllusionGameSelfAssociation/experiment/SelfAssociation/stimuli/cercle.png height=20%></img></div><div  style='font-size:500%; position:fixed; text-align: center; top:50%; bottom:50%; right:20%; left:20%'>+</div><div style = ""font-size:300%; text-align: center; position:fixed; top:70%; left:20%""><b>Vous</b></br></br></br></br>v</div><div style = ""font-size:300%; text-align: center; position:fixed; top:70%; right:20%; left:20%""><b>Sting</b></br></br></br></br>b</div><div style = ""font-size:300%; text-align: center; position:fixed; top:70%; right:20%""><b>Maxime</b></br></br></br></br>n</div>","n","","","","","","","cercle","12","Maxime","Maxime","true","Friend","","","","","","","","","","","","",""
"","sat_feedback","","html-keyboard-response","57","161119263","0.0-18.0-2.11","Sting","Maxime","","","","","","","","","","","","","","","","","","","","","null","<p style = 'font-size: 300%; color:green'>Correct!</p>","null","","","","","","","","","","","","","","","","","","","","","","","","",""
"","sat_fixationcross","","html-keyboard-response","58","161119780","0.0-18.0-0.12","Sting","Maxime","","","","","","","","","","","","","","","","","","","","","null","<div  style='font-size:500%; position:fixed; text-align: center; top:50%; bottom:50%; right:20%; left:20%'>+</div>","null","","","","","","500","","","","","","","","","","","","","","","","","","",""
"","sat_practicetrial","","html-keyboard-response","59","161121492","0.0-18.0-1.12","Sting","Maxime","","","","","","","","","","","","","","","","","","","","","1711","<div style='bottom:60%; right:20%; left:20%; position:fixed'><img src=https://realitybending.github.io/IllusionGameSelfAssociation/experiment/SelfAssociation/stimuli/triangle.png height=20%></img></div><div  style='font-size:500%; position:fixed; text-align: center; top:50%; bottom:50%; right:20%; left:20%'>+</div><div style = ""font-size:300%; text-align: center; position:fixed; top:70%; left:20%""><b>Vous</b></br></br></br></br>v</div><div style = ""font-size:300%; text-align: center; position:fixed; top:70%; right:20%; left:20%""><b>Sting</b></br></br></br></br>b</div><div style = ""font-size:300%; text-align: center; position:fixed; top:70%; right:20%""><b>Maxime</b></br></br></br></br>n</div>","v","","","","","","","triangle","13","Vous","Vous","true","Self","","","","","","","","","","","","",""
"","sat_feedback","","html-keyboard-response","60","161122007","0.0-18.0-2.12","Sting","Maxime","","","","","","","","","","","","","","","","","","","","","null","<p style = 'font-size: 300%; color:green'>Correct!</p>","null","","","","","","","","","","","","","","","","","","","","","","","","",""
"","sat_fixationcross","","html-keyboard-response","61","161122510","0.0-18.0-0.13","Sting","Maxime","","","","","","","","","","","","","","","","","","","","","null","<div  style='font-size:500%; position:fixed; text-align: center; top:50%; bottom:50%; right:20%; left:20%'>+</div>","null","","","","","","500","","","","","","","","","","","","","","","","","","",""
"","sat_practicetrial","","html-keyboard-response","62","161123892","0.0-18.0-1.13","Sting","Maxime","","","","","","","","","","","","","","","","","","","","","1381","<div style='bottom:60%; right:20%; left:20%; position:fixed'><img src=https://realitybending.github.io/IllusionGameSelfAssociation/experiment/SelfAssociation/stimuli/triangle.png height=20%></img></div><div  style='font-size:500%; position:fixed; text-align: center; top:50%; bottom:50%; right:20%; left:20%'>+</div><div style = ""font-size:300%; text-align: center; position:fixed; top:70%; left:20%""><b>Vous</b></br></br></br></br>v</div><div style = ""font-size:300%; text-align: center; position:fixed; top:70%; right:20%; left:20%""><b>Sting</b></br></br></br></br>b</div><div style = ""font-size:300%; text-align: center; position:fixed; top:70%; right:20%""><b>Maxime</b></br></br></br></br>n</div>","v","","","","","","","triangle","14","Vous","Vous","true","Self","","","","","","","","","","","","",""
"","sat_feedback","","html-keyboard-response","63","161124408","0.0-18.0-2.13","Sting","Maxime","","","","","","","","","","","","","","","","","","","","","null","<p style = 'font-size: 300%; color:green'>Correct!</p>","null","","","","","","","","","","","","","","","","","","","","","","","","",""
"","sat_fixationcross","","html-keyboard-response","64","161124917","0.0-18.0-0.14","Sting","Maxime","","","","","","","","","","","","","","","","","","","","","null","<div  style='font-size:500%; position:fixed; text-align: center; top:50%; bottom:50%; right:20%; left:20%'>+</div>","null","","","","","","500","","","","","","","","","","","","","","","","","","",""
"","sat_practicetrial","","html-keyboard-response","65","161126348","0.0-18.0-1.14","Sting","Maxime","","","","","","","","","","","","","","","","","","","","","1430","<div style='bottom:60%; right:20%; left:20%; position:fixed'><img src=https://realitybending.github.io/IllusionGameSelfAssociation/experiment/SelfAssociation/stimuli/cercle.png height=20%></img></div><div  style='font-size:500%; position:fixed; text-align: center; top:50%; bottom:50%; right:20%; left:20%'>+</div><div style = ""font-size:300%; text-align: center; position:fixed; top:70%; left:20%""><b>Vous</b></br></br></br></br>v</div><div style = ""font-size:300%; text-align: center; position:fixed; top:70%; right:20%; left:20%""><b>Sting</b></br></br></br></br>b</div><div style = ""font-size:300%; text-align: center; position:fixed; top:70%; right:20%""><b>Maxime</b></br></br></br></br>n</div>","n","","","","","","","cercle","15","Maxime","Maxime","true","Friend","","","","","","","","","","","","",""
"","sat_feedback","","html-keyboard-response","66","161126857","0.0-18.0-2.14","Sting","Maxime","","","","","","","","","","","","","","","","","","","","","null","<p style = 'font-size: 300%; color:green'>Correct!</p>","null","","","","","","","","","","","","","","","","","","","","","","","","",""
"","sat_fixationcross","","html-keyboard-response","67","161127359","0.0-18.0-0.15","Sting","Maxime","","","","","","","","","","","","","","","","","","","","","null","<div  style='font-size:500%; position:fixed; text-align: center; top:50%; bottom:50%; right:20%; left:20%'>+</div>","null","","","","","","500","","","","","","","","","","","","","","","","","","",""
"","sat_practicetrial","","html-keyboard-response","68","161128708","0.0-18.0-1.15","Sting","Maxime","","","","","","","","","","","","","","","","","","","","","1348","<div style='bottom:60%; right:20%; left:20%; position:fixed'><img src=https://realitybending.github.io/IllusionGameSelfAssociation/experiment/SelfAssociation/stimuli/triangle.png height=20%></img></div><div  style='font-size:500%; position:fixed; text-align: center; top:50%; bottom:50%; right:20%; left:20%'>+</div><div style = ""font-size:300%; text-align: center; position:fixed; top:70%; left:20%""><b>Vous</b></br></br></br></br>v</div><div style = ""font-size:300%; text-align: center; position:fixed; top:70%; right:20%; left:20%""><b>Sting</b></br></br></br></br>b</div><div style = ""font-size:300%; text-align: center; position:fixed; top:70%; right:20%""><b>Maxime</b></br></br></br></br>n</div>","v","","","","","","","triangle","16","Vous","Vous","true","Self","","","","","","","","","","","","",""
"","sat_feedback","","html-keyboard-response","69","161129224","0.0-18.0-2.15","Sting","Maxime","","","","","","","","","","","","","","","","","","","","","null","<p style = 'font-size: 300%; color:green'>Correct!</p>","null","","","","","","","","","","","","","","","","","","","","","","","","",""
"","sat_fixationcross","","html-keyboard-response","70","161129727","0.0-18.0-0.16","Sting","Maxime","","","","","","","","","","","","","","","","","","","","","null","<div  style='font-size:500%; position:fixed; text-align: center; top:50%; bottom:50%; right:20%; left:20%'>+</div>","null","","","","","","500","","","","","","","","","","","","","","","","","","",""
"","sat_practicetrial","","html-keyboard-response","71","161131116","0.0-18.0-1.16","Sting","Maxime","","","","","","","","","","","","","","","","","","","","","1388","<div style='bottom:60%; right:20%; left:20%; position:fixed'><img src=https://realitybending.github.io/IllusionGameSelfAssociation/experiment/SelfAssociation/stimuli/carré.png height=20%></img></div><div  style='font-size:500%; position:fixed; text-align: center; top:50%; bottom:50%; right:20%; left:20%'>+</div><div style = ""font-size:300%; text-align: center; position:fixed; top:70%; left:20%""><b>Vous</b></br></br></br></br>v</div><div style = ""font-size:300%; text-align: center; position:fixed; top:70%; right:20%; left:20%""><b>Sting</b></br></br></br></br>b</div><div style = ""font-size:300%; text-align: center; position:fixed; top:70%; right:20%""><b>Maxime</b></br></br></br></br>n</div>","b","","","","","","","carré","17","Sting","Sting","true","Stranger","","","","","","","","","","","","",""
"","sat_feedback","","html-keyboard-response","72","161131627","0.0-18.0-2.16","Sting","Maxime","","","","","","","","","","","","","","","","","","","","","null","<p style = 'font-size: 300%; color:green'>Correct!</p>","null","","","","","","","","","","","","","","","","","","","","","","","","",""
"","sat_fixationcross","","html-keyboard-response","73","161132130","0.0-18.0-0.17","Sting","Maxime","","","","","","","","","","","","","","","","","","","","","null","<div  style='font-size:500%; position:fixed; text-align: center; top:50%; bottom:50%; right:20%; left:20%'>+</div>","null","","","","","","500","","","","","","","","","","","","","","","","","","",""
"","sat_practicetrial","","html-keyboard-response","74","161133652","0.0-18.0-1.17","Sting","Maxime","","","","","","","","","","","","","","","","","","","","","1521","<div style='bottom:60%; right:20%; left:20%; position:fixed'><img src=https://realitybending.github.io/IllusionGameSelfAssociation/experiment/SelfAssociation/stimuli/triangle.png height=20%></img></div><div  style='font-size:500%; position:fixed; text-align: center; top:50%; bottom:50%; right:20%; left:20%'>+</div><div style = ""font-size:300%; text-align: center; position:fixed; top:70%; left:20%""><b>Vous</b></br></br></br></br>v</div><div style = ""font-size:300%; text-align: center; position:fixed; top:70%; right:20%; left:20%""><b>Sting</b></br></br></br></br>b</div><div style = ""font-size:300%; text-align: center; position:fixed; top:70%; right:20%""><b>Maxime</b></br></br></br></br>n</div>","v","","","","","","","triangle","18","Vous","Vous","true","Self","","","","","","","","","","","","",""
"","sat_feedback","","html-keyboard-response","75","161134169","0.0-18.0-2.17","Sting","Maxime","","","","","","","","","","","","","","","","","","","","","null","<p style = 'font-size: 300%; color:green'>Correct!</p>","null","","","","","","","","","","","","","","","","","","","","","","","","",""
"","sat_fixationcross","","html-keyboard-response","76","161134678","0.0-18.0-0.18","Sting","Maxime","","","","","","","","","","","","","","","","","","","","","null","<div  style='font-size:500%; position:fixed; text-align: center; top:50%; bottom:50%; right:20%; left:20%'>+</div>","null","","","","","","500","","","","","","","","","","","","","","","","","","",""
"","sat_practicetrial","","html-keyboard-response","77","161137172","0.0-18.0-1.18","Sting","Maxime","","","","","","","","","","","","","","","","","","","","","2493","<div style='bottom:60%; right:20%; left:20%; position:fixed'><img src=https://realitybending.github.io/IllusionGameSelfAssociation/experiment/SelfAssociation/stimuli/cercle.png height=20%></img></div><div  style='font-size:500%; position:fixed; text-align: center; top:50%; bottom:50%; right:20%; left:20%'>+</div><div style = ""font-size:300%; text-align: center; position:fixed; top:70%; left:20%""><b>Vous</b></br></br></br></br>v</div><div style = ""font-size:300%; text-align: center; position:fixed; top:70%; right:20%; left:20%""><b>Sting</b></br></br></br></br>b</div><div style = ""font-size:300%; text-align: center; position:fixed; top:70%; right:20%""><b>Maxime</b></br></br></br></br>n</div>","n","","","","","","","cercle","19","Maxime","Maxime","true","Friend","","","","","","","","","","","","",""
"","sat_feedback","","html-keyboard-response","78","161137683","0.0-18.0-2.18","Sting","Maxime","","","","","","","","","","","","","","","","","","","","","null","<p style = 'font-size: 300%; color:green'>Correct!</p>","null","","","","","","","","","","","","","","","","","","","","","","","","",""
"","sat_fixationcross","","html-keyboard-response","79","161138185","0.0-18.0-0.19","Sting","Maxime","","","","","","","","","","","","","","","","","","","","","null","<div  style='font-size:500%; position:fixed; text-align: center; top:50%; bottom:50%; right:20%; left:20%'>+</div>","null","","","","","","500","","","","","","","","","","","","","","","","","","",""
"","sat_practicetrial","","html-keyboard-response","80","161139364","0.0-18.0-1.19","Sting","Maxime","","","","","","","","","","","","","","","","","","","","","1178","<div style='bottom:60%; right:20%; left:20%; position:fixed'><img src=https://realitybending.github.io/IllusionGameSelfAssociation/experiment/SelfAssociation/stimuli/triangle.png height=20%></img></div><div  style='font-size:500%; position:fixed; text-align: center; top:50%; bottom:50%; right:20%; left:20%'>+</div><div style = ""font-size:300%; text-align: center; position:fixed; top:70%; left:20%""><b>Vous</b></br></br></br></br>v</div><div style = ""font-size:300%; text-align: center; position:fixed; top:70%; right:20%; left:20%""><b>Sting</b></br></br></br></br>b</div><div style = ""font-size:300%; text-align: center; position:fixed; top:70%; right:20%""><b>Maxime</b></br></br></br></br>n</div>","v","","","","","","","triangle","20","Vous","Vous","true","Self","","","","","","","","","","","","",""
"","sat_feedback","","html-keyboard-response","81","161139871","0.0-18.0-2.19","Sting","Maxime","","","","","","","","","","","","","","","","","","","","","null","<p style = 'font-size: 300%; color:green'>Correct!</p>","null","","","","","","","","","","","","","","","","","","","","","","","","",""
"","sat_fixationcross","","html-keyboard-response","82","161140383","0.0-18.0-0.20","Sting","Maxime","","","","","","","","","","","","","","","","","","","","","null","<div  style='font-size:500%; position:fixed; text-align: center; top:50%; bottom:50%; right:20%; left:20%'>+</div>","null","","","","","","500","","","","","","","","","","","","","","","","","","",""
"","sat_practicetrial","","html-keyboard-response","83","161141436","0.0-18.0-1.20","Sting","Maxime","","","","","","","","","","","","","","","","","","","","","1052","<div style='bottom:60%; right:20%; left:20%; position:fixed'><img src=https://realitybending.github.io/IllusionGameSelfAssociation/experiment/SelfAssociation/stimuli/cercle.png height=20%></img></div><div  style='font-size:500%; position:fixed; text-align: center; top:50%; bottom:50%; right:20%; left:20%'>+</div><div style = ""font-size:300%; text-align: center; position:fixed; top:70%; left:20%""><b>Vous</b></br></br></br></br>v</div><div style = ""font-size:300%; text-align: center; position:fixed; top:70%; right:20%; left:20%""><b>Sting</b></br></br></br></br>b</div><div style = ""font-size:300%; text-align: center; position:fixed; top:70%; right:20%""><b>Maxime</b></br></br></br></br>n</div>","n","","","","","","","cercle","21","Maxime","Maxime","true","Friend","","","","","","","","","","","","",""
"","sat_feedback","","html-keyboard-response","84","161141951","0.0-18.0-2.20","Sting","Maxime","","","","","","","","","","","","","","","","","","","","","null","<p style = 'font-size: 300%; color:green'>Correct!</p>","null","","","","","","","","","","","","","","","","","","","","","","","","",""
"","sat_fixationcross","","html-keyboard-response","85","161142469","0.0-18.0-0.21","Sting","Maxime","","","","","","","","","","","","","","","","","","","","","null","<div  style='font-size:500%; position:fixed; text-align: center; top:50%; bottom:50%; right:20%; left:20%'>+</div>","null","","","","","","500","","","","","","","","","","","","","","","","","","",""
"","sat_practicetrial","","html-keyboard-response","86","161143548","0.0-18.0-1.21","Sting","Maxime","","","","","","","","","","","","","","","","","","","","","1078","<div style='bottom:60%; right:20%; left:20%; position:fixed'><img src=https://realitybending.github.io/IllusionGameSelfAssociation/experiment/SelfAssociation/stimuli/carré.png height=20%></img></div><div  style='font-size:500%; position:fixed; text-align: center; top:50%; bottom:50%; right:20%; left:20%'>+</div><div style = ""font-size:300%; text-align: center; position:fixed; top:70%; left:20%""><b>Vous</b></br></br></br></br>v</div><div style = ""font-size:300%; text-align: center; position:fixed; top:70%; right:20%; left:20%""><b>Sting</b></br></br></br></br>b</div><div style = ""font-size:300%; text-align: center; position:fixed; top:70%; right:20%""><b>Maxime</b></br></br></br></br>n</div>","b","","","","","","","carré","22","Sting","Sting","true","Stranger","","","","","","","","","","","","",""
"","sat_practice_end","","html-button-response","87","161148226","0.0-19.0","Sting","Maxime","","","","","","","","","","","","","","","","","","","","","4678","<h1>Bravo!</h1><p>Vous avez terminé l'entraînement.</p>","0","","","","","","","","","","","","","","","","","","","","","","","","",""
"","matching_instructions_fr","","html-button-response","88","161168017","0.0-20.0","Sting","Maxime","","","","","","","","","","","","","","","","","","","","","19789","<h1>Instructions</h1><p>Dans cette phase du jeu, les formes précédentes vont être ré-associées aux personnes.</p><p>Vous devez décider aussi rapidement et précisément que possible si la forme présentée correspond à la personne nouvellement associée.</p><p>Si la paire forme-personne est <b>correcte</b>, appuyez sur <b>'e'</b>.</p><p>Si la paire forme-personne est <b>incorrecte</b>, appuyez sur <b>'i'</b></p><br><p>Bonne chance!</p>","0","","","","","","","","","","","","","","","","","","","","","","","","",""
"","SAT_assignmentscreen","","html-button-response","89","161182551","0.0-21.0","Sting","Maxime","","","","","","","","","","","","","","","","","","","","","14532","<h1>Instructions</h1><div id ='align-middle'><b>Vous</b> serez représenté(e) par un  <b>carré</b>  <img src= https://realitybending.github.io/IllusionGameSelfAssociation/experiment/SelfAssociation/stimuli/carré.png height=40></img></div><br><div id ='align-middle'><b>Sting</b> sera représenté(e) par un  <b>cercle</b>  <img src= https://realitybending.github.io/IllusionGameSelfAssociation/experiment/SelfAssociation/stimuli/cercle.png height=40></img></div><br><div id = 'align-middle'><b>Maxime</b> sera représenté(e) par un  <b>triangle</b>  <img src= https://realitybending.github.io/IllusionGameSelfAssociation/experiment/SelfAssociation/stimuli/triangle.png height=40></img></div><br>","0","","","","","","","","","","","","","","","","","","","","","","","","",""
"","sat_fixationcross","","html-keyboard-response","90","161183059","0.0-22.0-0.0","Sting","Maxime","","","","","","","","","","","","","","","","","","","","","null","<div  style='font-size:500%; position:fixed; text-align: center; top:50%; bottom:50%; right:20%; left:20%'>+</div>","null","","","","","","500","","","","","","","","","","","","","","","","","","",""
"","sat_trial","","html-keyboard-response","91","161187271","0.0-22.0-1.0","Sting","Maxime","","","","","","","","","","","","","","","","","","","","","null","<div style='bottom:60%; right:20%; left:20%; position:fixed'><img src=https://realitybending.github.io/IllusionGameSelfAssociation/experiment/SelfAssociation/stimuli/triangle.png height=20%></img></div><div  style='font-size:500%; position:fixed; text-align: center; top:50%; bottom:50%; right:20%; left:20%'>+</div><div style = ""font-size:300%; text-align: center; position:fixed; top:70%; right:20%; left:20%""><b>Vous</div>","null","","","","","","","triangle","1","null","mismatch","false","","Self","1","","","","","","","","","","",""
"","sat_feedback","","html-keyboard-response","92","161187789","0.0-22.0-2.0","Sting","Maxime","","","","","","","","","","","","","","","","","","","","","null","<p style = 'font-size: 300%; color:blue'>Trop long!</p>","null","","","","","","","","","","","","","","","","","","","","","","","","",""
"","sat_fixationcross","","html-keyboard-response","93","161188291","0.0-22.0-0.1","Sting","Maxime","","","","","","","","","","","","","","","","","","","","","null","<div  style='font-size:500%; position:fixed; text-align: center; top:50%; bottom:50%; right:20%; left:20%'>+</div>","null","","","","","","500","","","","","","","","","","","","","","","","","","",""
"","sat_trial","","html-keyboard-response","94","161192497","0.0-22.0-1.1","Sting","Maxime","","","","","","","","","","","","","","","","","","","","","null","<div style='bottom:60%; right:20%; left:20%; position:fixed'><img src=https://realitybending.github.io/IllusionGameSelfAssociation/experiment/SelfAssociation/stimuli/carré.png height=20%></img></div><div  style='font-size:500%; position:fixed; text-align: center; top:50%; bottom:50%; right:20%; left:20%'>+</div><div style = ""font-size:300%; text-align: center; position:fixed; top:70%; right:20%; left:20%""><b>Sting</div>","null","","","","","","","carré","2","null","mismatch","false","","Stranger","1","","","","","","","","","","",""
"","sat_feedback","","html-keyboard-response","95","161192999","0.0-22.0-2.1","Sting","Maxime","","","","","","","","","","","","","","","","","","","","","null","<p style = 'font-size: 300%; color:blue'>Trop long!</p>","null","","","","","","","","","","","","","","","","","","","","","","","","",""
"","sat_fixationcross","","html-keyboard-response","96","161193518","0.0-22.0-0.2","Sting","Maxime","","","","","","","","","","","","","","","","","","","","","null","<div  style='font-size:500%; position:fixed; text-align: center; top:50%; bottom:50%; right:20%; left:20%'>+</div>","null","","","","","","500","","","","","","","","","","","","","","","","","","",""
"","sat_trial","","html-keyboard-response","97","161195476","0.0-22.0-1.2","Sting","Maxime","","","","","","","","","","","","","","","","","","","","","1957","<div style='bottom:60%; right:20%; left:20%; position:fixed'><img src=https://realitybending.github.io/IllusionGameSelfAssociation/experiment/SelfAssociation/stimuli/cercle.png height=20%></img></div><div  style='font-size:500%; position:fixed; text-align: center; top:50%; bottom:50%; right:20%; left:20%'>+</div><div style = ""font-size:300%; text-align: center; position:fixed; top:70%; right:20%; left:20%""><b>Maxime</div>","e","","","","","","","cercle","3","match","mismatch","false","","Friend","1","","","","","","","","","","",""
"","sat_feedback","","html-keyboard-response","98","161195994","0.0-22.0-2.2","Sting","Maxime","","","","","","","","","","","","","","","","","","","","","null","<p style = 'font-size: 300%; color:red'>Incorrect!</p>","null","","","","","","","","","","","","","","","","","","","","","","","","",""
"","sat_fixationcross","","html-keyboard-response","99","161196514","0.0-22.0-0.3","Sting","Maxime","","","","","","","","","","","","","","","","","","","","","null","<div  style='font-size:500%; position:fixed; text-align: center; top:50%; bottom:50%; right:20%; left:20%'>+</div>","null","","","","","","500","","","","","","","","","","","","","","","","","","",""
"","sat_trial","","html-keyboard-response","100","161198084","0.0-22.0-1.3","Sting","Maxime","","","","","","","","","","","","","","","","","","","","","1569","<div style='bottom:60%; right:20%; left:20%; position:fixed'><img src=https://realitybending.github.io/IllusionGameSelfAssociation/experiment/SelfAssociation/stimuli/triangle.png height=20%></img></div><div  style='font-size:500%; position:fixed; text-align: center; top:50%; bottom:50%; right:20%; left:20%'>+</div><div style = ""font-size:300%; text-align: center; position:fixed; top:70%; right:20%; left:20%""><b>Vous</div>","e","","","","","","","triangle","4","match","mismatch","false","","Self","1","","","","","","","","","","",""
"","sat_feedback","","html-keyboard-response","101","161198599","0.0-22.0-2.3","Sting","Maxime","","","","","","","","","","","","","","","","","","","","","null","<p style = 'font-size: 300%; color:red'>Incorrect!</p>","null","","","","","","","","","","","","","","","","","","","","","","","","",""
"","sat_fixationcross","","html-keyboard-response","102","161199102","0.0-22.0-0.4","Sting","Maxime","","","","","","","","","","","","","","","","","","","","","null","<div  style='font-size:500%; position:fixed; text-align: center; top:50%; bottom:50%; right:20%; left:20%'>+</div>","null","","","","","","500","","","","","","","","","","","","","","","","","","",""
"","sat_trial","","html-keyboard-response","103","161199908","0.0-22.0-1.4","Sting","Maxime","","","","","","","","","","","","","","","","","","","","","805","<div style='bottom:60%; right:20%; left:20%; position:fixed'><img src=https://realitybending.github.io/IllusionGameSelfAssociation/experiment/SelfAssociation/stimuli/carré.png height=20%></img></div><div  style='font-size:500%; position:fixed; text-align: center; top:50%; bottom:50%; right:20%; left:20%'>+</div><div style = ""font-size:300%; text-align: center; position:fixed; top:70%; right:20%; left:20%""><b>Vous</div>","e","","","","","","","carré","5","match","match","true","","Self","1","","","","","","","","","","",""
"","sat_feedback","","html-keyboard-response","104","161200421","0.0-22.0-2.4","Sting","Maxime","","","","","","","","","","","","","","","","","","","","","null","<p style = 'font-size: 300%; color:green'>Correct!</p>","null","","","","","","","","","","","","","","","","","","","","","","","","",""
"","sat_fixationcross","","html-keyboard-response","105","161200939","0.0-22.0-0.5","Sting","Maxime","","","","","","","","","","","","","","","","","","","","","null","<div  style='font-size:500%; position:fixed; text-align: center; top:50%; bottom:50%; right:20%; left:20%'>+</div>","null","","","","","","500","","","","","","","","","","","","","","","","","","",""
"","sat_trial","","html-keyboard-response","106","161201788","0.0-22.0-1.5","Sting","Maxime","","","","","","","","","","","","","","","","","","","","","848","<div style='bottom:60%; right:20%; left:20%; position:fixed'><img src=https://realitybending.github.io/IllusionGameSelfAssociation/experiment/SelfAssociation/stimuli/triangle.png height=20%></img></div><div  style='font-size:500%; position:fixed; text-align: center; top:50%; bottom:50%; right:20%; left:20%'>+</div><div style = ""font-size:300%; text-align: center; position:fixed; top:70%; right:20%; left:20%""><b>Maxime</div>","i","","","","","","","triangle","6","mismatch","match","false","","Friend","1","","","","","","","","","","",""
"","sat_feedback","","html-keyboard-response","107","161202304","0.0-22.0-2.5","Sting","Maxime","","","","","","","","","","","","","","","","","","","","","null","<p style = 'font-size: 300%; color:red'>Incorrect!</p>","null","","","","","","","","","","","","","","","","","","","","","","","","",""
"","sat_fixationcross","","html-keyboard-response","108","161202805","0.0-22.0-0.6","Sting","Maxime","","","","","","","","","","","","","","","","","","","","","null","<div  style='font-size:500%; position:fixed; text-align: center; top:50%; bottom:50%; right:20%; left:20%'>+</div>","null","","","","","","500","","","","","","","","","","","","","","","","","","",""
"","sat_trial","","html-keyboard-response","109","161207028","0.0-22.0-1.6","Sting","Maxime","","","","","","","","","","","","","","","","","","","","","null","<div style='bottom:60%; right:20%; left:20%; position:fixed'><img src=https://realitybending.github.io/IllusionGameSelfAssociation/experiment/SelfAssociation/stimuli/cercle.png height=20%></img></div><div  style='font-size:500%; position:fixed; text-align: center; top:50%; bottom:50%; right:20%; left:20%'>+</div><div style = ""font-size:300%; text-align: center; position:fixed; top:70%; right:20%; left:20%""><b>Vous</div>","null","","","","","","","cercle","7","null","mismatch","false","","Self","1","","","","","","","","","","",""
"","sat_feedback","","html-keyboard-response","110","161207545","0.0-22.0-2.6","Sting","Maxime","","","","","","","","","","","","","","","","","","","","","null","<p style = 'font-size: 300%; color:blue'>Trop long!</p>","null","","","","","","","","","","","","","","","","","","","","","","","","",""
"","sat_fixationcross","","html-keyboard-response","111","161208047","0.0-22.0-0.7","Sting","Maxime","","","","","","","","","","","","","","","","","","","","","null","<div  style='font-size:500%; position:fixed; text-align: center; top:50%; bottom:50%; right:20%; left:20%'>+</div>","null","","","","","","500","","","","","","","","","","","","","","","","","","",""
"","sat_trial","","html-keyboard-response","112","161209276","0.0-22.0-1.7","Sting","Maxime","","","","","","","","","","","","","","","","","","","","","1228","<div style='bottom:60%; right:20%; left:20%; position:fixed'><img src=https://realitybending.github.io/IllusionGameSelfAssociation/experiment/SelfAssociation/stimuli/triangle.png height=20%></img></div><div  style='font-size:500%; position:fixed; text-align: center; top:50%; bottom:50%; right:20%; left:20%'>+</div><div style = ""font-size:300%; text-align: center; position:fixed; top:70%; right:20%; left:20%""><b>Vous</div>","i","","","","","","","triangle","8","mismatch","mismatch","true","","Self","1","","","","","","","","","","",""
"","sat_feedback","","html-keyboard-response","113","161209788","0.0-22.0-2.7","Sting","Maxime","","","","","","","","","","","","","","","","","","","","","null","<p style = 'font-size: 300%; color:green'>Correct!</p>","null","","","","","","","","","","","","","","","","","","","","","","","","",""
"","sat_fixationcross","","html-keyboard-response","114","161210290","0.0-22.0-0.8","Sting","Maxime","","","","","","","","","","","","","","","","","","","","","null","<div  style='font-size:500%; position:fixed; text-align: center; top:50%; bottom:50%; right:20%; left:20%'>+</div>","null","","","","","","500","","","","","","","","","","","","","","","","","","",""
"","sat_trial","","html-keyboard-response","115","161211284","0.0-22.0-1.8","Sting","Maxime","","","","","","","","","","","","","","","","","","","","","993","<div style='bottom:60%; right:20%; left:20%; position:fixed'><img src=https://realitybending.github.io/IllusionGameSelfAssociation/experiment/SelfAssociation/stimuli/triangle.png height=20%></img></div><div  style='font-size:500%; position:fixed; text-align: center; top:50%; bottom:50%; right:20%; left:20%'>+</div><div style = ""font-size:300%; text-align: center; position:fixed; top:70%; right:20%; left:20%""><b>Maxime</div>","e","","","","","","","triangle","9","match","match","true","","Friend","1","","","","","","","","","","",""
"","sat_feedback","","html-keyboard-response","116","161211795","0.0-22.0-2.8","Sting","Maxime","","","","","","","","","","","","","","","","","","","","","null","<p style = 'font-size: 300%; color:green'>Correct!</p>","null","","","","","","","","","","","","","","","","","","","","","","","","",""
"","sat_fixationcross","","html-keyboard-response","117","161212315","0.0-22.0-0.9","Sting","Maxime","","","","","","","","","","","","","","","","","","","","","null","<div  style='font-size:500%; position:fixed; text-align: center; top:50%; bottom:50%; right:20%; left:20%'>+</div>","null","","","","","","500","","","","","","","","","","","","","","","","","","",""
"","sat_trial","","html-keyboard-response","118","161213523","0.0-22.0-1.9","Sting","Maxime","","","","","","","","","","","","","","","","","","","","","1208","<div style='bottom:60%; right:20%; left:20%; position:fixed'><img src=https://realitybending.github.io/IllusionGameSelfAssociation/experiment/SelfAssociation/stimuli/cercle.png height=20%></img></div><div  style='font-size:500%; position:fixed; text-align: center; top:50%; bottom:50%; right:20%; left:20%'>+</div><div style = ""font-size:300%; text-align: center; position:fixed; top:70%; right:20%; left:20%""><b>Vous</div>","i","","","","","","","cercle","10","mismatch","mismatch","true","","Self","1","","","","","","","","","","",""
"","sat_feedback","","html-keyboard-response","119","161214041","0.0-22.0-2.9","Sting","Maxime","","","","","","","","","","","","","","","","","","","","","null","<p style = 'font-size: 300%; color:green'>Correct!</p>","null","","","","","","","","","","","","","","","","","","","","","","","","",""
"","sat_fixationcross","","html-keyboard-response","120","161214558","0.0-22.0-0.10","Sting","Maxime","","","","","","","","","","","","","","","","","","","","","null","<div  style='font-size:500%; position:fixed; text-align: center; top:50%; bottom:50%; right:20%; left:20%'>+</div>","null","","","","","","500","","","","","","","","","","","","","","","","","","",""
"","sat_trial","","html-keyboard-response","121","161215571","0.0-22.0-1.10","Sting","Maxime","","","","","","","","","","","","","","","","","","","","","1013","<div style='bottom:60%; right:20%; left:20%; position:fixed'><img src=https://realitybending.github.io/IllusionGameSelfAssociation/experiment/SelfAssociation/stimuli/carré.png height=20%></img></div><div  style='font-size:500%; position:fixed; text-align: center; top:50%; bottom:50%; right:20%; left:20%'>+</div><div style = ""font-size:300%; text-align: center; position:fixed; top:70%; right:20%; left:20%""><b>Vous</div>","e","","","","","","","carré","11","match","match","true","","Self","1","","","","","","","","","","",""
"","sat_feedback","","html-keyboard-response","122","161216081","0.0-22.0-2.10","Sting","Maxime","","","","","","","","","","","","","","","","","","","","","null","<p style = 'font-size: 300%; color:green'>Correct!</p>","null","","","","","","","","","","","","","","","","","","","","","","","","",""
"","sat_fixationcross","","html-keyboard-response","123","161216598","0.0-22.0-0.11","Sting","Maxime","","","","","","","","","","","","","","","","","","","","","null","<div  style='font-size:500%; position:fixed; text-align: center; top:50%; bottom:50%; right:20%; left:20%'>+</div>","null","","","","","","500","","","","","","","","","","","","","","","","","","",""
"","sat_trial","","html-keyboard-response","124","161217411","0.0-22.0-1.11","Sting","Maxime","","","","","","","","","","","","","","","","","","","","","812","<div style='bottom:60%; right:20%; left:20%; position:fixed'><img src=https://realitybending.github.io/IllusionGameSelfAssociation/experiment/SelfAssociation/stimuli/carré.png height=20%></img></div><div  style='font-size:500%; position:fixed; text-align: center; top:50%; bottom:50%; right:20%; left:20%'>+</div><div style = ""font-size:300%; text-align: center; position:fixed; top:70%; right:20%; left:20%""><b>Vous</div>","e","","","","","","","carré","12","match","match","true","","Self","1","","","","","","","","","","",""
"","sat_feedback","","html-keyboard-response","125","161217932","0.0-22.0-2.11","Sting","Maxime","","","","","","","","","","","","","","","","","","","","","null","<p style = 'font-size: 300%; color:green'>Correct!</p>","null","","","","","","","","","","","","","","","","","","","","","","","","",""
"","sat_fixationcross","","html-keyboard-response","126","161218450","0.0-22.0-0.12","Sting","Maxime","","","","","","","","","","","","","","","","","","","","","null","<div  style='font-size:500%; position:fixed; text-align: center; top:50%; bottom:50%; right:20%; left:20%'>+</div>","null","","","","","","500","","","","","","","","","","","","","","","","","","",""
"","sat_trial","","html-keyboard-response","127","161219524","0.0-22.0-1.12","Sting","Maxime","","","","","","","","","","","","","","","","","","","","","1073","<div style='bottom:60%; right:20%; left:20%; position:fixed'><img src=https://realitybending.github.io/IllusionGameSelfAssociation/experiment/SelfAssociation/stimuli/cercle.png height=20%></img></div><div  style='font-size:500%; position:fixed; text-align: center; top:50%; bottom:50%; right:20%; left:20%'>+</div><div style = ""font-size:300%; text-align: center; position:fixed; top:70%; right:20%; left:20%""><b>Vous</div>","i","","","","","","","cercle","13","mismatch","mismatch","true","","Self","1","","","","","","","","","","",""
"","sat_feedback","","html-keyboard-response","128","161220036","0.0-22.0-2.12","Sting","Maxime","","","","","","","","","","","","","","","","","","","","","null","<p style = 'font-size: 300%; color:green'>Correct!</p>","null","","","","","","","","","","","","","","","","","","","","","","","","",""
"","sat_fixationcross","","html-keyboard-response","129","161220540","0.0-22.0-0.13","Sting","Maxime","","","","","","","","","","","","","","","","","","","","","null","<div  style='font-size:500%; position:fixed; text-align: center; top:50%; bottom:50%; right:20%; left:20%'>+</div>","null","","","","","","500","","","","","","","","","","","","","","","","","","",""
"","sat_trial","","html-keyboard-response","130","161221563","0.0-22.0-1.13","Sting","Maxime","","","","","","","","","","","","","","","","","","","","","1023","<div style='bottom:60%; right:20%; left:20%; position:fixed'><img src=https://realitybending.github.io/IllusionGameSelfAssociation/experiment/SelfAssociation/stimuli/triangle.png height=20%></img></div><div  style='font-size:500%; position:fixed; text-align: center; top:50%; bottom:50%; right:20%; left:20%'>+</div><div style = ""font-size:300%; text-align: center; position:fixed; top:70%; right:20%; left:20%""><b>Vous</div>","i","","","","","","","triangle","14","mismatch","mismatch","true","","Self","1","","","","","","","","","","",""
"","sat_feedback","","html-keyboard-response","131","161221795","0.0-22.0-2.13","Sting","Maxime","","","","","","","","","","","","","","","","","","","","","231","<p style = 'font-size: 300%; color:green'>Correct!</p>","i","","","","","","","","","","","","","","","","","","","","","","","","",""
"","sat_fixationcross","","html-keyboard-response","132","161222311","0.0-22.0-0.14","Sting","Maxime","","","","","","","","","","","","","","","","","","","","","null","<div  style='font-size:500%; position:fixed; text-align: center; top:50%; bottom:50%; right:20%; left:20%'>+</div>","null","","","","","","500","","","","","","","","","","","","","","","","","","",""
"","sat_trial","","html-keyboard-response","133","161223299","0.0-22.0-1.14","Sting","Maxime","","","","","","","","","","","","","","","","","","","","","987","<div style='bottom:60%; right:20%; left:20%; position:fixed'><img src=https://realitybending.github.io/IllusionGameSelfAssociation/experiment/SelfAssociation/stimuli/cercle.png height=20%></img></div><div  style='font-size:500%; position:fixed; text-align: center; top:50%; bottom:50%; right:20%; left:20%'>+</div><div style = ""font-size:300%; text-align: center; position:fixed; top:70%; right:20%; left:20%""><b>Vous</div>","i","","","","","","","cercle","15","mismatch","mismatch","true","","Self","1","","","","","","","","","","",""
"","sat_feedback","","html-keyboard-response","134","161223817","0.0-22.0-2.14","Sting","Maxime","","","","","","","","","","","","","","","","","","","","","null","<p style = 'font-size: 300%; color:green'>Correct!</p>","null","","","","","","","","","","","","","","","","","","","","","","","","",""
"","sat_fixationcross","","html-keyboard-response","135","161224319","0.0-22.0-0.15","Sting","Maxime","","","","","","","","","","","","","","","","","","","","","null","<div  style='font-size:500%; position:fixed; text-align: center; top:50%; bottom:50%; right:20%; left:20%'>+</div>","null","","","","","","500","","","","","","","","","","","","","","","","","","",""
"","sat_trial","","html-keyboard-response","136","161225035","0.0-22.0-1.15","Sting","Maxime","","","","","","","","","","","","","","","","","","","","","715","<div style='bottom:60%; right:20%; left:20%; position:fixed'><img src=https://realitybending.github.io/IllusionGameSelfAssociation/experiment/SelfAssociation/stimuli/triangle.png height=20%></img></div><div  style='font-size:500%; position:fixed; text-align: center; top:50%; bottom:50%; right:20%; left:20%'>+</div><div style = ""font-size:300%; text-align: center; position:fixed; top:70%; right:20%; left:20%""><b>Vous</div>","i","","","","","","","triangle","16","mismatch","mismatch","true","","Self","1","","","","","","","","","","",""
"","sat_feedback","","html-keyboard-response","137","161225544","0.0-22.0-2.15","Sting","Maxime","","","","","","","","","","","","","","","","","","","","","null","<p style = 'font-size: 300%; color:green'>Correct!</p>","null","","","","","","","","","","","","","","","","","","","","","","","","",""
"","sat_fixationcross","","html-keyboard-response","138","161226047","0.0-22.0-0.16","Sting","Maxime","","","","","","","","","","","","","","","","","","","","","null","<div  style='font-size:500%; position:fixed; text-align: center; top:50%; bottom:50%; right:20%; left:20%'>+</div>","null","","","","","","500","","","","","","","","","","","","","","","","","","",""
"","sat_trial","","html-keyboard-response","139","161227052","0.0-22.0-1.16","Sting","Maxime","","","","","","","","","","","","","","","","","","","","","1005","<div style='bottom:60%; right:20%; left:20%; position:fixed'><img src=https://realitybending.github.io/IllusionGameSelfAssociation/experiment/SelfAssociation/stimuli/carré.png height=20%></img></div><div  style='font-size:500%; position:fixed; text-align: center; top:50%; bottom:50%; right:20%; left:20%'>+</div><div style = ""font-size:300%; text-align: center; position:fixed; top:70%; right:20%; left:20%""><b>Vous</div>","e","","","","","","","carré","17","match","match","true","","Self","1","","","","","","","","","","",""
"","sat_feedback","","html-keyboard-response","140","161227567","0.0-22.0-2.16","Sting","Maxime","","","","","","","","","","","","","","","","","","","","","null","<p style = 'font-size: 300%; color:green'>Correct!</p>","null","","","","","","","","","","","","","","","","","","","","","","","","",""
"","sat_fixationcross","","html-keyboard-response","141","161228070","0.0-22.0-0.17","Sting","Maxime","","","","","","","","","","","","","","","","","","","","","null","<div  style='font-size:500%; position:fixed; text-align: center; top:50%; bottom:50%; right:20%; left:20%'>+</div>","null","","","","","","500","","","","","","","","","","","","","","","","","","",""
"","sat_trial","","html-keyboard-response","142","161229660","0.0-22.0-1.17","Sting","Maxime","","","","","","","","","","","","","","","","","","","","","1589","<div style='bottom:60%; right:20%; left:20%; position:fixed'><img src=https://realitybending.github.io/IllusionGameSelfAssociation/experiment/SelfAssociation/stimuli/cercle.png height=20%></img></div><div  style='font-size:500%; position:fixed; text-align: center; top:50%; bottom:50%; right:20%; left:20%'>+</div><div style = ""font-size:300%; text-align: center; position:fixed; top:70%; right:20%; left:20%""><b>Sting</div>","e","","","","","","","cercle","18","match","match","true","","Stranger","1","","","","","","","","","","",""
"","sat_feedback","","html-keyboard-response","143","161230173","0.0-22.0-2.17","Sting","Maxime","","","","","","","","","","","","","","","","","","","","","null","<p style = 'font-size: 300%; color:green'>Correct!</p>","null","","","","","","","","","","","","","","","","","","","","","","","","",""
"","sat_fixationcross","","html-keyboard-response","144","161230676","0.0-22.0-0.18","Sting","Maxime","","","","","","","","","","","","","","","","","","","","","null","<div  style='font-size:500%; position:fixed; text-align: center; top:50%; bottom:50%; right:20%; left:20%'>+</div>","null","","","","","","500","","","","","","","","","","","","","","","","","","",""
"","sat_trial","","html-keyboard-response","145","161231556","0.0-22.0-1.18","Sting","Maxime","","","","","","","","","","","","","","","","","","","","","879","<div style='bottom:60%; right:20%; left:20%; position:fixed'><img src=https://realitybending.github.io/IllusionGameSelfAssociation/experiment/SelfAssociation/stimuli/carré.png height=20%></img></div><div  style='font-size:500%; position:fixed; text-align: center; top:50%; bottom:50%; right:20%; left:20%'>+</div><div style = ""font-size:300%; text-align: center; position:fixed; top:70%; right:20%; left:20%""><b>Vous</div>","e","","","","","","","carré","19","match","match","true","","Self","1","","","","","","","","","","",""
"","sat_feedback","","html-keyboard-response","146","161232070","0.0-22.0-2.18","Sting","Maxime","","","","","","","","","","","","","","","","","","","","","null","<p style = 'font-size: 300%; color:green'>Correct!</p>","null","","","","","","","","","","","","","","","","","","","","","","","","",""
"","sat_fixationcross","","html-keyboard-response","147","161232588","0.0-22.0-0.19","Sting","Maxime","","","","","","","","","","","","","","","","","","","","","null","<div  style='font-size:500%; position:fixed; text-align: center; top:50%; bottom:50%; right:20%; left:20%'>+</div>","null","","","","","","500","","","","","","","","","","","","","","","","","","",""
"","sat_trial","","html-keyboard-response","148","161235371","0.0-22.0-1.19","Sting","Maxime","","","","","","","","","","","","","","","","","","","","","2782","<div style='bottom:60%; right:20%; left:20%; position:fixed'><img src=https://realitybending.github.io/IllusionGameSelfAssociation/experiment/SelfAssociation/stimuli/triangle.png height=20%></img></div><div  style='font-size:500%; position:fixed; text-align: center; top:50%; bottom:50%; right:20%; left:20%'>+</div><div style = ""font-size:300%; text-align: center; position:fixed; top:70%; right:20%; left:20%""><b>Sting</div>","i","","","","","","","triangle","20","mismatch","mismatch","true","","Stranger","1","","","","","","","","","","",""
"","sat_feedback","","html-keyboard-response","149","161235884","0.0-22.0-2.19","Sting","Maxime","","","","","","","","","","","","","","","","","","","","","null","<p style = 'font-size: 300%; color:green'>Correct!</p>","null","","","","","","","","","","","","","","","","","","","","","","","","",""
"","sat_fixationcross","","html-keyboard-response","150","161236386","0.0-22.0-0.20","Sting","Maxime","","","","","","","","","","","","","","","","","","","","","null","<div  style='font-size:500%; position:fixed; text-align: center; top:50%; bottom:50%; right:20%; left:20%'>+</div>","null","","","","","","500","","","","","","","","","","","","","","","","","","",""
"","sat_trial","","html-keyboard-response","151","161237995","0.0-22.0-1.20","Sting","Maxime","","","","","","","","","","","","","","","","","","","","","1609","<div style='bottom:60%; right:20%; left:20%; position:fixed'><img src=https://realitybending.github.io/IllusionGameSelfAssociation/experiment/SelfAssociation/stimuli/cercle.png height=20%></img></div><div  style='font-size:500%; position:fixed; text-align: center; top:50%; bottom:50%; right:20%; left:20%'>+</div><div style = ""font-size:300%; text-align: center; position:fixed; top:70%; right:20%; left:20%""><b>Sting</div>","e","","","","","","","cercle","21","match","match","true","","Stranger","1","","","","","","","","","","",""
"","sat_feedback","","html-keyboard-response","152","161238505","0.0-22.0-2.20","Sting","Maxime","","","","","","","","","","","","","","","","","","","","","null","<p style = 'font-size: 300%; color:green'>Correct!</p>","null","","","","","","","","","","","","","","","","","","","","","","","","",""
"","sat_fixationcross","","html-keyboard-response","153","161239007","0.0-22.0-0.21","Sting","Maxime","","","","","","","","","","","","","","","","","","","","","null","<div  style='font-size:500%; position:fixed; text-align: center; top:50%; bottom:50%; right:20%; left:20%'>+</div>","null","","","","","","500","","","","","","","","","","","","","","","","","","",""
"","sat_trial","","html-keyboard-response","154","161239796","0.0-22.0-1.21","Sting","Maxime","","","","","","","","","","","","","","","","","","","","","788","<div style='bottom:60%; right:20%; left:20%; position:fixed'><img src=https://realitybending.github.io/IllusionGameSelfAssociation/experiment/SelfAssociation/stimuli/triangle.png height=20%></img></div><div  style='font-size:500%; position:fixed; text-align: center; top:50%; bottom:50%; right:20%; left:20%'>+</div><div style = ""font-size:300%; text-align: center; position:fixed; top:70%; right:20%; left:20%""><b>Maxime</div>","i","","","","","","","triangle","22","mismatch","match","false","","Friend","1","","","","","","","","","","",""
"","sat_feedback","","html-keyboard-response","155","161240305","0.0-22.0-2.21","Sting","Maxime","","","","","","","","","","","","","","","","","","","","","null","<p style = 'font-size: 300%; color:red'>Incorrect!</p>","null","","","","","","","","","","","","","","","","","","","","","","","","",""
"","sat_fixationcross","","html-keyboard-response","156","161240813","0.0-22.0-0.22","Sting","Maxime","","","","","","","","","","","","","","","","","","","","","null","<div  style='font-size:500%; position:fixed; text-align: center; top:50%; bottom:50%; right:20%; left:20%'>+</div>","null","","","","","","500","","","","","","","","","","","","","","","","","","",""
"","sat_trial","","html-keyboard-response","157","161241532","0.0-22.0-1.22","Sting","Maxime","","","","","","","","","","","","","","","","","","","","","718","<div style='bottom:60%; right:20%; left:20%; position:fixed'><img src=https://realitybending.github.io/IllusionGameSelfAssociation/experiment/SelfAssociation/stimuli/carré.png height=20%></img></div><div  style='font-size:500%; position:fixed; text-align: center; top:50%; bottom:50%; right:20%; left:20%'>+</div><div style = ""font-size:300%; text-align: center; position:fixed; top:70%; right:20%; left:20%""><b>Vous</div>","e","","","","","","","carré","23","match","match","true","","Self","1","","","","","","","","","","",""
"","sat_feedback","","html-keyboard-response","158","161242050","0.0-22.0-2.22","Sting","Maxime","","","","","","","","","","","","","","","","","","","","","null","<p style = 'font-size: 300%; color:green'>Correct!</p>","null","","","","","","","","","","","","","","","","","","","","","","","","",""
"","sat_fixationcross","","html-keyboard-response","159","161242569","0.0-22.0-0.23","Sting","Maxime","","","","","","","","","","","","","","","","","","","","","null","<div  style='font-size:500%; position:fixed; text-align: center; top:50%; bottom:50%; right:20%; left:20%'>+</div>","null","","","","","","500","","","","","","","","","","","","","","","","","","",""
"","sat_trial","","html-keyboard-response","160","161243683","0.0-22.0-1.23","Sting","Maxime","","","","","","","","","","","","","","","","","","","","","1114","<div style='bottom:60%; right:20%; left:20%; position:fixed'><img src=https://realitybending.github.io/IllusionGameSelfAssociation/experiment/SelfAssociation/stimuli/cercle.png height=20%></img></div><div  style='font-size:500%; position:fixed; text-align: center; top:50%; bottom:50%; right:20%; left:20%'>+</div><div style = ""font-size:300%; text-align: center; position:fixed; top:70%; right:20%; left:20%""><b>Vous</div>","i","","","","","","","cercle","24","mismatch","mismatch","true","","Self","1","","","","","","","","","","",""
"","sat_feedback","","html-keyboard-response","161","161244199","0.0-22.0-2.23","Sting","Maxime","","","","","","","","","","","","","","","","","","","","","null","<p style = 'font-size: 300%; color:green'>Correct!</p>","null","","","","","","","","","","","","","","","","","","","","","","","","",""
"","sat_fixationcross","","html-keyboard-response","162","161244703","0.0-22.0-0.24","Sting","Maxime","","","","","","","","","","","","","","","","","","","","","null","<div  style='font-size:500%; position:fixed; text-align: center; top:50%; bottom:50%; right:20%; left:20%'>+</div>","null","","","","","","500","","","","","","","","","","","","","","","","","","",""
"","sat_trial","","html-keyboard-response","163","161245779","0.0-22.0-1.24","Sting","Maxime","","","","","","","","","","","","","","","","","","","","","1075","<div style='bottom:60%; right:20%; left:20%; position:fixed'><img src=https://realitybending.github.io/IllusionGameSelfAssociation/experiment/SelfAssociation/stimuli/carré.png height=20%></img></div><div  style='font-size:500%; position:fixed; text-align: center; top:50%; bottom:50%; right:20%; left:20%'>+</div><div style = ""font-size:300%; text-align: center; position:fixed; top:70%; right:20%; left:20%""><b>Maxime</div>","i","","","","","","","carré","25","mismatch","mismatch","true","","Friend","1","","","","","","","","","","",""
"","sat_feedback","","html-keyboard-response","164","161246287","0.0-22.0-2.24","Sting","Maxime","","","","","","","","","","","","","","","","","","","","","null","<p style = 'font-size: 300%; color:green'>Correct!</p>","null","","","","","","","","","","","","","","","","","","","","","","","","",""
"","sat_fixationcross","","html-keyboard-response","165","161246790","0.0-22.0-0.25","Sting","Maxime","","","","","","","","","","","","","","","","","","","","","null","<div  style='font-size:500%; position:fixed; text-align: center; top:50%; bottom:50%; right:20%; left:20%'>+</div>","null","","","","","","500","","","","","","","","","","","","","","","","","","",""
"","sat_trial","","html-keyboard-response","166","161247403","0.0-22.0-1.25","Sting","Maxime","","","","","","","","","","","","","","","","","","","","","613","<div style='bottom:60%; right:20%; left:20%; position:fixed'><img src=https://realitybending.github.io/IllusionGameSelfAssociation/experiment/SelfAssociation/stimuli/carré.png height=20%></img></div><div  style='font-size:500%; position:fixed; text-align: center; top:50%; bottom:50%; right:20%; left:20%'>+</div><div style = ""font-size:300%; text-align: center; position:fixed; top:70%; right:20%; left:20%""><b>Vous</div>","e","","","","","","","carré","26","match","match","true","","Self","1","","","","","","","","","","",""
"","sat_feedback","","html-keyboard-response","167","161247924","0.0-22.0-2.25","Sting","Maxime","","","","","","","","","","","","","","","","","","","","","null","<p style = 'font-size: 300%; color:green'>Correct!</p>","null","","","","","","","","","","","","","","","","","","","","","","","","",""
"","sat_fixationcross","","html-keyboard-response","168","161248439","0.0-22.0-0.26","Sting","Maxime","","","","","","","","","","","","","","","","","","","","","null","<div  style='font-size:500%; position:fixed; text-align: center; top:50%; bottom:50%; right:20%; left:20%'>+</div>","null","","","","","","500","","","","","","","","","","","","","","","","","","",""
"","sat_trial","","html-keyboard-response","169","161248971","0.0-22.0-1.26","Sting","Maxime","","","","","","","","","","","","","","","","","","","","","532","<div style='bottom:60%; right:20%; left:20%; position:fixed'><img src=https://realitybending.github.io/IllusionGameSelfAssociation/experiment/SelfAssociation/stimuli/carré.png height=20%></img></div><div  style='font-size:500%; position:fixed; text-align: center; top:50%; bottom:50%; right:20%; left:20%'>+</div><div style = ""font-size:300%; text-align: center; position:fixed; top:70%; right:20%; left:20%""><b>Vous</div>","e","","","","","","","carré","27","match","match","true","","Self","1","","","","","","","","","","",""
"","sat_feedback","","html-keyboard-response","170","161249489","0.0-22.0-2.26","Sting","Maxime","","","","","","","","","","","","","","","","","","","","","null","<p style = 'font-size: 300%; color:green'>Correct!</p>","null","","","","","","","","","","","","","","","","","","","","","","","","",""
"","sat_fixationcross","","html-keyboard-response","171","161249992","0.0-22.0-0.27","Sting","Maxime","","","","","","","","","","","","","","","","","","","","","null","<div  style='font-size:500%; position:fixed; text-align: center; top:50%; bottom:50%; right:20%; left:20%'>+</div>","null","","","","","","500","","","","","","","","","","","","","","","","","","",""
"","sat_trial","","html-keyboard-response","172","161250724","0.0-22.0-1.27","Sting","Maxime","","","","","","","","","","","","","","","","","","","","","731","<div style='bottom:60%; right:20%; left:20%; position:fixed'><img src=https://realitybending.github.io/IllusionGameSelfAssociation/experiment/SelfAssociation/stimuli/carré.png height=20%></img></div><div  style='font-size:500%; position:fixed; text-align: center; top:50%; bottom:50%; right:20%; left:20%'>+</div><div style = ""font-size:300%; text-align: center; position:fixed; top:70%; right:20%; left:20%""><b>Maxime</div>","i","","","","","","","carré","28","mismatch","mismatch","true","","Friend","1","","","","","","","","","","",""
"","sat_feedback","","html-keyboard-response","173","161251233","0.0-22.0-2.27","Sting","Maxime","","","","","","","","","","","","","","","","","","","","","null","<p style = 'font-size: 300%; color:green'>Correct!</p>","null","","","","","","","","","","","","","","","","","","","","","","","","",""
"","sat_fixationcross","","html-keyboard-response","174","161251734","0.0-22.0-0.28","Sting","Maxime","","","","","","","","","","","","","","","","","","","","","null","<div  style='font-size:500%; position:fixed; text-align: center; top:50%; bottom:50%; right:20%; left:20%'>+</div>","null","","","","","","500","","","","","","","","","","","","","","","","","","",""
"","sat_trial","","html-keyboard-response","175","161252811","0.0-22.0-1.28","Sting","Maxime","","","","","","","","","","","","","","","","","","","","","1077","<div style='bottom:60%; right:20%; left:20%; position:fixed'><img src=https://realitybending.github.io/IllusionGameSelfAssociation/experiment/SelfAssociation/stimuli/triangle.png height=20%></img></div><div  style='font-size:500%; position:fixed; text-align: center; top:50%; bottom:50%; right:20%; left:20%'>+</div><div style = ""font-size:300%; text-align: center; position:fixed; top:70%; right:20%; left:20%""><b>Sting</div>","i","","","","","","","triangle","29","mismatch","mismatch","true","","Stranger","1","","","","","","","","","","",""
"","sat_feedback","","html-keyboard-response","176","161253318","0.0-22.0-2.28","Sting","Maxime","","","","","","","","","","","","","","","","","","","","","null","<p style = 'font-size: 300%; color:green'>Correct!</p>","null","","","","","","","","","","","","","","","","","","","","","","","","",""
"","sat_fixationcross","","html-keyboard-response","177","161253823","0.0-22.0-0.29","Sting","Maxime","","","","","","","","","","","","","","","","","","","","","null","<div  style='font-size:500%; position:fixed; text-align: center; top:50%; bottom:50%; right:20%; left:20%'>+</div>","null","","","","","","500","","","","","","","","","","","","","","","","","","",""
"","sat_trial","","html-keyboard-response","178","161254683","0.0-22.0-1.29","Sting","Maxime","","","","","","","","","","","","","","","","","","","","","859","<div style='bottom:60%; right:20%; left:20%; position:fixed'><img src=https://realitybending.github.io/IllusionGameSelfAssociation/experiment/SelfAssociation/stimuli/carré.png height=20%></img></div><div  style='font-size:500%; position:fixed; text-align: center; top:50%; bottom:50%; right:20%; left:20%'>+</div><div style = ""font-size:300%; text-align: center; position:fixed; top:70%; right:20%; left:20%""><b>Sting</div>","i","","","","","","","carré","30","mismatch","mismatch","true","","Stranger","1","","","","","","","","","","",""
"","sat_feedback","","html-keyboard-response","179","161255201","0.0-22.0-2.29","Sting","Maxime","","","","","","","","","","","","","","","","","","","","","null","<p style = 'font-size: 300%; color:green'>Correct!</p>","null","","","","","","","","","","","","","","","","","","","","","","","","",""
"","sat_fixationcross","","html-keyboard-response","180","161255703","0.0-22.0-0.30","Sting","Maxime","","","","","","","","","","","","","","","","","","","","","null","<div  style='font-size:500%; position:fixed; text-align: center; top:50%; bottom:50%; right:20%; left:20%'>+</div>","null","","","","","","500","","","","","","","","","","","","","","","","","","",""
"","sat_trial","","html-keyboard-response","181","161256387","0.0-22.0-1.30","Sting","Maxime","","","","","","","","","","","","","","","","","","","","","683","<div style='bottom:60%; right:20%; left:20%; position:fixed'><img src=https://realitybending.github.io/IllusionGameSelfAssociation/experiment/SelfAssociation/stimuli/cercle.png height=20%></img></div><div  style='font-size:500%; position:fixed; text-align: center; top:50%; bottom:50%; right:20%; left:20%'>+</div><div style = ""font-size:300%; text-align: center; position:fixed; top:70%; right:20%; left:20%""><b>Vous</div>","e","","","","","","","cercle","31","match","mismatch","false","","Self","1","","","","","","","","","","",""
"","sat_feedback","","html-keyboard-response","182","161256897","0.0-22.0-2.30","Sting","Maxime","","","","","","","","","","","","","","","","","","","","","null","<p style = 'font-size: 300%; color:red'>Incorrect!</p>","null","","","","","","","","","","","","","","","","","","","","","","","","",""
"","sat_fixationcross","","html-keyboard-response","183","161257398","0.0-22.0-0.31","Sting","Maxime","","","","","","","","","","","","","","","","","","","","","null","<div  style='font-size:500%; position:fixed; text-align: center; top:50%; bottom:50%; right:20%; left:20%'>+</div>","null","","","","","","500","","","","","","","","","","","","","","","","","","",""
"","sat_trial","","html-keyboard-response","184","161258259","0.0-22.0-1.31","Sting","Maxime","","","","","","","","","","","","","","","","","","","","","860","<div style='bottom:60%; right:20%; left:20%; position:fixed'><img src=https://realitybending.github.io/IllusionGameSelfAssociation/experiment/SelfAssociation/stimuli/carré.png height=20%></img></div><div  style='font-size:500%; position:fixed; text-align: center; top:50%; bottom:50%; right:20%; left:20%'>+</div><div style = ""font-size:300%; text-align: center; position:fixed; top:70%; right:20%; left:20%""><b>Sting</div>","i","","","","","","","carré","32","mismatch","mismatch","true","","Stranger","1","","","","","","","","","","",""
"","sat_feedback","","html-keyboard-response","185","161258780","0.0-22.0-2.31","Sting","Maxime","","","","","","","","","","","","","","","","","","","","","null","<p style = 'font-size: 300%; color:green'>Correct!</p>","null","","","","","","","","","","","","","","","","","","","","","","","","",""
"","sat_fixationcross","","html-keyboard-response","186","161259297","0.0-22.0-0.32","Sting","Maxime","","","","","","","","","","","","","","","","","","","","","null","<div  style='font-size:500%; position:fixed; text-align: center; top:50%; bottom:50%; right:20%; left:20%'>+</div>","null","","","","","","500","","","","","","","","","","","","","","","","","","",""
"","sat_trial","","html-keyboard-response","187","161260075","0.0-22.0-1.32","Sting","Maxime","","","","","","","","","","","","","","","","","","","","","777","<div style='bottom:60%; right:20%; left:20%; position:fixed'><img src=https://realitybending.github.io/IllusionGameSelfAssociation/experiment/SelfAssociation/stimuli/cercle.png height=20%></img></div><div  style='font-size:500%; position:fixed; text-align: center; top:50%; bottom:50%; right:20%; left:20%'>+</div><div style = ""font-size:300%; text-align: center; position:fixed; top:70%; right:20%; left:20%""><b>Vous</div>","i","","","","","","","cercle","33","mismatch","mismatch","true","","Self","1","","","","","","","","","","",""
"","sat_feedback","","html-keyboard-response","188","161260584","0.0-22.0-2.32","Sting","Maxime","","","","","","","","","","","","","","","","","","","","","null","<p style = 'font-size: 300%; color:green'>Correct!</p>","null","","","","","","","","","","","","","","","","","","","","","","","","",""
"","sat_fixationcross","","html-keyboard-response","189","161261085","0.0-22.0-0.33","Sting","Maxime","","","","","","","","","","","","","","","","","","","","","null","<div  style='font-size:500%; position:fixed; text-align: center; top:50%; bottom:50%; right:20%; left:20%'>+</div>","null","","","","","","500","","","","","","","","","","","","","","","","","","",""
"","sat_trial","","html-keyboard-response","190","161261836","0.0-22.0-1.33","Sting","Maxime","","","","","","","","","","","","","","","","","","","","","749","<div style='bottom:60%; right:20%; left:20%; position:fixed'><img src=https://realitybending.github.io/IllusionGameSelfAssociation/experiment/SelfAssociation/stimuli/carré.png height=20%></img></div><div  style='font-size:500%; position:fixed; text-align: center; top:50%; bottom:50%; right:20%; left:20%'>+</div><div style = ""font-size:300%; text-align: center; position:fixed; top:70%; right:20%; left:20%""><b>Maxime</div>","i","","","","","","","carré","34","mismatch","mismatch","true","","Friend","1","","","","","","","","","","",""
"","sat_feedback","","html-keyboard-response","191","161262091","0.0-22.0-2.33","Sting","Maxime","","","","","","","","","","","","","","","","","","","","","255","<p style = 'font-size: 300%; color:green'>Correct!</p>","i","","","","","","","","","","","","","","","","","","","","","","","","",""
"","sat_fixationcross","","html-keyboard-response","192","161262609","0.0-22.0-0.34","Sting","Maxime","","","","","","","","","","","","","","","","","","","","","null","<div  style='font-size:500%; position:fixed; text-align: center; top:50%; bottom:50%; right:20%; left:20%'>+</div>","null","","","","","","500","","","","","","","","","","","","","","","","","","",""
"","sat_trial","","html-keyboard-response","193","161263403","0.0-22.0-1.34","Sting","Maxime","","","","","","","","","","","","","","","","","","","","","794","<div style='bottom:60%; right:20%; left:20%; position:fixed'><img src=https://realitybending.github.io/IllusionGameSelfAssociation/experiment/SelfAssociation/stimuli/cercle.png height=20%></img></div><div  style='font-size:500%; position:fixed; text-align: center; top:50%; bottom:50%; right:20%; left:20%'>+</div><div style = ""font-size:300%; text-align: center; position:fixed; top:70%; right:20%; left:20%""><b>Maxime</div>","i","","","","","","","cercle","35","mismatch","mismatch","true","","Friend","1","","","","","","","","","","",""
"","sat_feedback","","html-keyboard-response","194","161263911","0.0-22.0-2.34","Sting","Maxime","","","","","","","","","","","","","","","","","","","","","null","<p style = 'font-size: 300%; color:green'>Correct!</p>","null","","","","","","","","","","","","","","","","","","","","","","","","",""
"","sat_fixationcross","","html-keyboard-response","195","161264414","0.0-22.0-0.35","Sting","Maxime","","","","","","","","","","","","","","","","","","","","","null","<div  style='font-size:500%; position:fixed; text-align: center; top:50%; bottom:50%; right:20%; left:20%'>+</div>","null","","","","","","500","","","","","","","","","","","","","","","","","","",""
"","sat_trial","","html-keyboard-response","196","161265107","0.0-22.0-1.35","Sting","Maxime","","","","","","","","","","","","","","","","","","","","","692","<div style='bottom:60%; right:20%; left:20%; position:fixed'><img src=https://realitybending.github.io/IllusionGameSelfAssociation/experiment/SelfAssociation/stimuli/cercle.png height=20%></img></div><div  style='font-size:500%; position:fixed; text-align: center; top:50%; bottom:50%; right:20%; left:20%'>+</div><div style = ""font-size:300%; text-align: center; position:fixed; top:70%; right:20%; left:20%""><b>Maxime</div>","i","","","","","","","cercle","36","mismatch","mismatch","true","","Friend","1","","","","","","","","","","",""
"","sat_feedback","","html-keyboard-response","197","161265622","0.0-22.0-2.35","Sting","Maxime","","","","","","","","","","","","","","","","","","","","","null","<p style = 'font-size: 300%; color:green'>Correct!</p>","null","","","","","","","","","","","","","","","","","","","","","","","","",""
"","sat_fixationcross","","html-keyboard-response","198","161266124","0.0-22.0-0.36","Sting","Maxime","","","","","","","","","","","","","","","","","","","","","null","<div  style='font-size:500%; position:fixed; text-align: center; top:50%; bottom:50%; right:20%; left:20%'>+</div>","null","","","","","","500","","","","","","","","","","","","","","","","","","",""
"","sat_trial","","html-keyboard-response","199","161266955","0.0-22.0-1.36","Sting","Maxime","","","","","","","","","","","","","","","","","","","","","831","<div style='bottom:60%; right:20%; left:20%; position:fixed'><img src=https://realitybending.github.io/IllusionGameSelfAssociation/experiment/SelfAssociation/stimuli/carré.png height=20%></img></div><div  style='font-size:500%; position:fixed; text-align: center; top:50%; bottom:50%; right:20%; left:20%'>+</div><div style = ""font-size:300%; text-align: center; position:fixed; top:70%; right:20%; left:20%""><b>Maxime</div>","i","","","","","","","carré","37","mismatch","mismatch","true","","Friend","1","","","","","","","","","","",""
