"success","screen","group","trial_type","trial_index","time_elapsed","internal_node_id","label_stranger","label_friend","width","height","webaudio","browser","browser_version","mobile","os","fullscreen","vsync_rate","webcam","microphone","date","time","screen_height","screen_width","researcher","sona_id","prolific_id","study_id","session_id","rt","stimulus","response","question_order","timeout","failed_images","failed_audio","failed_video","trial_duration","shape","trial_number","answer","answer_correct","correct","condition","label_condition","block_number","file","block","correct_response","Illusion_Type","Illusion_Strength","Illusion_Difference","isi","fixation_cross","type","illusion_strength","illusion_difference"
"true","fullscreen","control_T0","fullscreen","0","2948","0.0-0.0","Eminem","eris","","","","","","","","","","","","","","","","","","","","","","","","","","","","","","","","","","","","","","","","","","","","","","","",""
"","browser_info","","browser-check","1","3956","0.0-1.0","Eminem","eris","1013","897","true","chrome","126.0.0","false","Windows 10","true","60","true","true","22/12/2024","21:32:22","897","1013","","","657af5d53d19dd3fc798d92c","65e72b0a27a1d8bd15a851fe","6767eaa0abdba14817774fc4","","","","","","","","","","","","","","","","","","","","","","","","","","","",""
"","consent","","html-button-response","2","11363","0.0-2.0","Eminem","eris","","","","","","","","","","","","","","","","","","","","","7406","<img src='https://u-paris.fr/wp-content/uploads/2022/03/Universite_Paris-Cite-logo.jpeg' width='300px' align='right'/><br><br><br><br><br><h1>Consent form</h1><p align='left'>In this study, you will have to complete two questionnaires and two tasks.</p><p align='left'>The questionnaires are about your daily psychological functioning, and the tasks are two games to measure your association skills and sensitivity to visual illusions.</p><p align='left'>The questionnaires and tasks must be completed alone. <b>Your participation is confidential and your answers will be anonymized.</b> We do not collect your IP address or any other identifying information.</p><p align='left'>Your data are very valuable to us. In participating, you will contribute to scientific progress. <b>In participating, you accept to follow the instructions and to supply honest answers.</b> You can also refuse to partake without any justification and with absolutely no consequences.</p><p align='left'>If you don't want to participate, or if you want to leave the study, you can simply close your browser.</p><p align='left'>The entire study takes approximately 40 minutes, with questionnaires in between parts of the tasks. Please, stay focused until the screen confirming that your data are saved appears.</p><p align='left'><br><sub><sup>If you have any questions regarding the study, you can email Baptiste Fauvel (baptiste.fauvel@u-paris.fr). This study has been reviewed and approved by the ethical committee of the University of Paris .</sup></sub></p>","0","","","","","","","","","","","","","","","","","","","","","","","","",""
"","demographics_1","","survey-multi-choice","3","20187","0.0-3.0-0.0","Eminem","eris","","","","","","","","","","","","","","","","","","","","","8822","","{""sex"":""Male"",""student"":""Yes"",""education"":""University (bachelor) <sub><sup>or equivalent</sup></sub>"",""language"":""Native""}","[0,1,2,3]","","","","","","","","","","","","","","","","","","","","","","","",""
"","demographics_2","","survey-text","4","25800","0.0-3.0-1.0","Eminem","eris","","","","","","","","","","","","","","","","","","","","","5611","","{""age"":""28"",""country"":""australia""}","","","","","","","","","","","","","","","","","","","","","","","","",""
"","","","html-button-response","5","29954","0.0-4.0","Eminem","eris","","","","","","","","","","","","","","","","","","","","","4154","<p style=""font-size:18px; color:black;"">Have you <b>ever</b> been diagnosed with any of the following pathologies ?</p>","1","","","","","","","","","","","","","","","","","","","","","","","","",""
"","","","html-button-response","6","33083","0.0-6.0","Eminem","eris","","","","","","","","","","","","","","","","","","","","","3128","<p style=""font-size:18px; color:black;"">Are you <b>currently</b> diagnosed with any of the following pathologies ?</p>","1","","","","","","","","","","","","","","","","","","","","","","","","",""
"","","","html-button-response","7","34636","0.0-8.0","Eminem","eris","","","","","","","","","","","","","","","","","","","","","1552","<p style=""font-size:18px; color:black;"">Do you meditate regularly? E.g. at least once a week?</p>","1","","","","","","","","","","","","","","","","","","","","","","","","",""
"","","","html-button-response","8","37362","0.0-10.0","Eminem","eris","","","","","","","","","","","","","","","","","","","","","2725","<p style=""font-size:18px; color:black;"">Have-you ever taken any classical psychedelic substance (e.g., LSD, psilocybin mushrooms, ayahuasca) <b>in your life</b> ?</p>","1","","","","","","","","","","","","","","","","","","","","","","","","",""
"","PsychFreq_Eng","","survey-multi-choice","9","41170","0.0-11.0","Eminem","eris","","","","","","","","","","","","","","","","","","","","","3807","","{""psych_freq_english"":""Never""}","[0]","","","","","","","","","","","","","","","","","","","","","","","",""
"true","","","preload","10","41482","0.0-12.0","Eminem","eris","","","","","","","","","","","","","","","","","","","","","","","","","false","[]","[]","[]","","","","","","","","","","","","","","","","","","","",""
"","SAT_instructions_general","","html-button-response","11","52018","0.0-13.0","Eminem","eris","","","","","","","","","","","","","","","","","","","","","10535","<h1>Shape-Label Association Game</h1><p>In this task, you will be shown some <b>shapes</b> that will be assigned to a <b>label</b> (You, Your Best Friend and a Stranger).</p><p>To personalize this game to your own experience, you will first select who you want the friend and the stranger to be.</p>","0","","","","","","","","","","","","","","","","","","","","","","","","",""
"","SAT_strangerlabel","","survey-multi-choice","12","61390","0.0-14.0","Eminem","eris","","","","","","","","","","","","","","","","","","","","","9371","","{""label_stranger"":""Eminem""}","[0]","","","","","","","","","","","","","","","","","","","","","","","",""
"","SAT_friendlabel","","survey-text","13","78078","0.0-15.0","Eminem","eris","","","","","","","","","","","","","","","","","","","","","16686","","{""label_friend"":""eris""}","","","","","","","","","","","","","","","","","","","","","","","","",""
"","SAT_instructions_practice","","html-button-response","14","108163","0.0-16.0","Eminem","eris","","","","","","","","","","","","","","","","","","","","","30084","<h1>Practice</h1><p>Each label (i.e., You, Best Friend, Stranger) will be assigned to a specific shape (circle, square or triangle)</p><p>During the practice phase, you will be presented with one of the shapes above a fixation cross, together with the three labels below the fixation cross.</p><p>Your task is to select the label that corresponds with the presented shape as quickly and accurately as possible</p><p>If the correct label is on the <b>left</b>, press <b>'v'</b>.</p><p>If the correct label is in the <b>middle</b>, press <b>'b'</b>.</p><p>If the correct label is on the <b>right</b>, press <b>'n'</b>.</p><br>","0","","","","","","","","","","","","","","","","","","","","","","","","",""
"","SAT_assignmentscreen","","html-button-response","15","119967","0.0-17.0","Eminem","eris","","","","","","","","","","","","","","","","","","","","","11804","<h1>Instructions</h1><div id ='align-middle'><b>You</b> will be represented by a  <b>triangle</b>  <img src= https://realitybending.github.io/IllusionGameSelfAssociation/experiment/SelfAssociation/stimuli/triangle.png height=40></img></div><br><div id ='align-middle'><b>Eminem</b> will be represented by a  <b>square</b>  <img src= https://realitybending.github.io/IllusionGameSelfAssociation/experiment/SelfAssociation/stimuli/square.png height=40></img></div><br><div id = 'align-middle'><b>eris</b> will be represented by a  <b>circle</b>  <img src= https://realitybending.github.io/IllusionGameSelfAssociation/experiment/SelfAssociation/stimuli/circle.png height=40></img></div><br>","0","","","","","","","","","","","","","","","","","","","","","","","","",""
"","sat_fixationcross","","html-keyboard-response","16","120468","0.0-18.0-0.0","Eminem","eris","","","","","","","","","","","","","","","","","","","","","null","<div  style='font-size:500%; position:fixed; text-align: center; top:50%; bottom:50%; right:20%; left:20%'>+</div>","null","","","","","","500","","","","","","","","","","","","","","","","","","",""
"","sat_practicetrial","","html-keyboard-response","17","121946","0.0-18.0-1.0","Eminem","eris","","","","","","","","","","","","","","","","","","","","","1477","<div style='bottom:60%; right:20%; left:20%; position:fixed'><img src=https://realitybending.github.io/IllusionGameSelfAssociation/experiment/SelfAssociation/stimuli/square.png height=20%></img></div><div  style='font-size:500%; position:fixed; text-align: center; top:50%; bottom:50%; right:20%; left:20%'>+</div><div style = ""font-size:300%; text-align: center; position:fixed; top:70%; left:20%""><b>You</b></br></br></br></br>v</div><div style = ""font-size:300%; text-align: center; position:fixed; top:70%; right:20%; left:20%""><b>Eminem</b></br></br></br></br>b</div><div style = ""font-size:300%; text-align: center; position:fixed; top:70%; right:20%""><b>eris</b></br></br></br></br>n</div>","b","","","","","","","square","1","Eminem","Eminem","true","Stranger","","","","","","","","","","","","",""
"","sat_feedback","","html-keyboard-response","18","122447","0.0-18.0-2.0","Eminem","eris","","","","","","","","","","","","","","","","","","","","","null","<p style = 'font-size: 300%; color:green'>Correct!</p>","null","","","","","","","","","","","","","","","","","","","","","","","","",""
"","sat_fixationcross","","html-keyboard-response","19","122948","0.0-18.0-0.1","Eminem","eris","","","","","","","","","","","","","","","","","","","","","null","<div  style='font-size:500%; position:fixed; text-align: center; top:50%; bottom:50%; right:20%; left:20%'>+</div>","null","","","","","","500","","","","","","","","","","","","","","","","","","",""
"","sat_practicetrial","","html-keyboard-response","20","123508","0.0-18.0-1.1","Eminem","eris","","","","","","","","","","","","","","","","","","","","","560","<div style='bottom:60%; right:20%; left:20%; position:fixed'><img src=https://realitybending.github.io/IllusionGameSelfAssociation/experiment/SelfAssociation/stimuli/triangle.png height=20%></img></div><div  style='font-size:500%; position:fixed; text-align: center; top:50%; bottom:50%; right:20%; left:20%'>+</div><div style = ""font-size:300%; text-align: center; position:fixed; top:70%; left:20%""><b>You</b></br></br></br></br>v</div><div style = ""font-size:300%; text-align: center; position:fixed; top:70%; right:20%; left:20%""><b>Eminem</b></br></br></br></br>b</div><div style = ""font-size:300%; text-align: center; position:fixed; top:70%; right:20%""><b>eris</b></br></br></br></br>n</div>","v","","","","","","","triangle","2","You","You","true","Self","","","","","","","","","","","","",""
"","sat_feedback","","html-keyboard-response","21","124011","0.0-18.0-2.1","Eminem","eris","","","","","","","","","","","","","","","","","","","","","null","<p style = 'font-size: 300%; color:green'>Correct!</p>","null","","","","","","","","","","","","","","","","","","","","","","","","",""
"","sat_fixationcross","","html-keyboard-response","22","124513","0.0-18.0-0.2","Eminem","eris","","","","","","","","","","","","","","","","","","","","","null","<div  style='font-size:500%; position:fixed; text-align: center; top:50%; bottom:50%; right:20%; left:20%'>+</div>","null","","","","","","500","","","","","","","","","","","","","","","","","","",""
"","sat_practicetrial","","html-keyboard-response","23","125038","0.0-18.0-1.2","Eminem","eris","","","","","","","","","","","","","","","","","","","","","524","<div style='bottom:60%; right:20%; left:20%; position:fixed'><img src=https://realitybending.github.io/IllusionGameSelfAssociation/experiment/SelfAssociation/stimuli/triangle.png height=20%></img></div><div  style='font-size:500%; position:fixed; text-align: center; top:50%; bottom:50%; right:20%; left:20%'>+</div><div style = ""font-size:300%; text-align: center; position:fixed; top:70%; left:20%""><b>You</b></br></br></br></br>v</div><div style = ""font-size:300%; text-align: center; position:fixed; top:70%; right:20%; left:20%""><b>Eminem</b></br></br></br></br>b</div><div style = ""font-size:300%; text-align: center; position:fixed; top:70%; right:20%""><b>eris</b></br></br></br></br>n</div>","v","","","","","","","triangle","3","You","You","true","Self","","","","","","","","","","","","",""
"","sat_feedback","","html-keyboard-response","24","125539","0.0-18.0-2.2","Eminem","eris","","","","","","","","","","","","","","","","","","","","","null","<p style = 'font-size: 300%; color:green'>Correct!</p>","null","","","","","","","","","","","","","","","","","","","","","","","","",""
"","sat_fixationcross","","html-keyboard-response","25","126041","0.0-18.0-0.3","Eminem","eris","","","","","","","","","","","","","","","","","","","","","null","<div  style='font-size:500%; position:fixed; text-align: center; top:50%; bottom:50%; right:20%; left:20%'>+</div>","null","","","","","","500","","","","","","","","","","","","","","","","","","",""
"","sat_practicetrial","","html-keyboard-response","26","126477","0.0-18.0-1.3","Eminem","eris","","","","","","","","","","","","","","","","","","","","","435","<div style='bottom:60%; right:20%; left:20%; position:fixed'><img src=https://realitybending.github.io/IllusionGameSelfAssociation/experiment/SelfAssociation/stimuli/circle.png height=20%></img></div><div  style='font-size:500%; position:fixed; text-align: center; top:50%; bottom:50%; right:20%; left:20%'>+</div><div style = ""font-size:300%; text-align: center; position:fixed; top:70%; left:20%""><b>You</b></br></br></br></br>v</div><div style = ""font-size:300%; text-align: center; position:fixed; top:70%; right:20%; left:20%""><b>Eminem</b></br></br></br></br>b</div><div style = ""font-size:300%; text-align: center; position:fixed; top:70%; right:20%""><b>eris</b></br></br></br></br>n</div>","n","","","","","","","circle","4","eris","eris","true","Friend","","","","","","","","","","","","",""
"","sat_feedback","","html-keyboard-response","27","126979","0.0-18.0-2.3","Eminem","eris","","","","","","","","","","","","","","","","","","","","","null","<p style = 'font-size: 300%; color:green'>Correct!</p>","null","","","","","","","","","","","","","","","","","","","","","","","","",""
"","sat_fixationcross","","html-keyboard-response","28","127480","0.0-18.0-0.4","Eminem","eris","","","","","","","","","","","","","","","","","","","","","null","<div  style='font-size:500%; position:fixed; text-align: center; top:50%; bottom:50%; right:20%; left:20%'>+</div>","null","","","","","","500","","","","","","","","","","","","","","","","","","",""
"","sat_practicetrial","","html-keyboard-response","29","127770","0.0-18.0-1.4","Eminem","eris","","","","","","","","","","","","","","","","","","","","","289","<div style='bottom:60%; right:20%; left:20%; position:fixed'><img src=https://realitybending.github.io/IllusionGameSelfAssociation/experiment/SelfAssociation/stimuli/square.png height=20%></img></div><div  style='font-size:500%; position:fixed; text-align: center; top:50%; bottom:50%; right:20%; left:20%'>+</div><div style = ""font-size:300%; text-align: center; position:fixed; top:70%; left:20%""><b>You</b></br></br></br></br>v</div><div style = ""font-size:300%; text-align: center; position:fixed; top:70%; right:20%; left:20%""><b>Eminem</b></br></br></br></br>b</div><div style = ""font-size:300%; text-align: center; position:fixed; top:70%; right:20%""><b>eris</b></br></br></br></br>n</div>","b","","","","","","","square","5","Eminem","Eminem","true","Stranger","","","","","","","","","","","","",""
"","sat_feedback","","html-keyboard-response","30","128271","0.0-18.0-2.4","Eminem","eris","","","","","","","","","","","","","","","","","","","","","null","<p style = 'font-size: 300%; color:green'>Correct!</p>","null","","","","","","","","","","","","","","","","","","","","","","","","",""
"","sat_fixationcross","","html-keyboard-response","31","128774","0.0-18.0-0.5","Eminem","eris","","","","","","","","","","","","","","","","","","","","","null","<div  style='font-size:500%; position:fixed; text-align: center; top:50%; bottom:50%; right:20%; left:20%'>+</div>","null","","","","","","500","","","","","","","","","","","","","","","","","","",""
"","sat_practicetrial","","html-keyboard-response","32","129257","0.0-18.0-1.5","Eminem","eris","","","","","","","","","","","","","","","","","","","","","483","<div style='bottom:60%; right:20%; left:20%; position:fixed'><img src=https://realitybending.github.io/IllusionGameSelfAssociation/experiment/SelfAssociation/stimuli/circle.png height=20%></img></div><div  style='font-size:500%; position:fixed; text-align: center; top:50%; bottom:50%; right:20%; left:20%'>+</div><div style = ""font-size:300%; text-align: center; position:fixed; top:70%; left:20%""><b>You</b></br></br></br></br>v</div><div style = ""font-size:300%; text-align: center; position:fixed; top:70%; right:20%; left:20%""><b>Eminem</b></br></br></br></br>b</div><div style = ""font-size:300%; text-align: center; position:fixed; top:70%; right:20%""><b>eris</b></br></br></br></br>n</div>","b","","","","","","","circle","6","Eminem","eris","false","Friend","","","","","","","","","","","","",""
"","sat_feedback","","html-keyboard-response","33","129758","0.0-18.0-2.5","Eminem","eris","","","","","","","","","","","","","","","","","","","","","null","<p style = 'font-size: 300%; color:red'>Incorrect!</p>","null","","","","","","","","","","","","","","","","","","","","","","","","",""
"","sat_fixationcross","","html-keyboard-response","34","130259","0.0-18.0-0.6","Eminem","eris","","","","","","","","","","","","","","","","","","","","","null","<div  style='font-size:500%; position:fixed; text-align: center; top:50%; bottom:50%; right:20%; left:20%'>+</div>","null","","","","","","500","","","","","","","","","","","","","","","","","","",""
"","sat_practicetrial","","html-keyboard-response","35","130817","0.0-18.0-1.6","Eminem","eris","","","","","","","","","","","","","","","","","","","","","557","<div style='bottom:60%; right:20%; left:20%; position:fixed'><img src=https://realitybending.github.io/IllusionGameSelfAssociation/experiment/SelfAssociation/stimuli/triangle.png height=20%></img></div><div  style='font-size:500%; position:fixed; text-align: center; top:50%; bottom:50%; right:20%; left:20%'>+</div><div style = ""font-size:300%; text-align: center; position:fixed; top:70%; left:20%""><b>You</b></br></br></br></br>v</div><div style = ""font-size:300%; text-align: center; position:fixed; top:70%; right:20%; left:20%""><b>Eminem</b></br></br></br></br>b</div><div style = ""font-size:300%; text-align: center; position:fixed; top:70%; right:20%""><b>eris</b></br></br></br></br>n</div>","v","","","","","","","triangle","7","You","You","true","Self","","","","","","","","","","","","",""
"","sat_feedback","","html-keyboard-response","36","131317","0.0-18.0-2.6","Eminem","eris","","","","","","","","","","","","","","","","","","","","","null","<p style = 'font-size: 300%; color:green'>Correct!</p>","null","","","","","","","","","","","","","","","","","","","","","","","","",""
"","sat_fixationcross","","html-keyboard-response","37","131819","0.0-18.0-0.7","Eminem","eris","","","","","","","","","","","","","","","","","","","","","null","<div  style='font-size:500%; position:fixed; text-align: center; top:50%; bottom:50%; right:20%; left:20%'>+</div>","null","","","","","","500","","","","","","","","","","","","","","","","","","",""
"","sat_practicetrial","","html-keyboard-response","38","132787","0.0-18.0-1.7","Eminem","eris","","","","","","","","","","","","","","","","","","","","","967","<div style='bottom:60%; right:20%; left:20%; position:fixed'><img src=https://realitybending.github.io/IllusionGameSelfAssociation/experiment/SelfAssociation/stimuli/square.png height=20%></img></div><div  style='font-size:500%; position:fixed; text-align: center; top:50%; bottom:50%; right:20%; left:20%'>+</div><div style = ""font-size:300%; text-align: center; position:fixed; top:70%; left:20%""><b>You</b></br></br></br></br>v</div><div style = ""font-size:300%; text-align: center; position:fixed; top:70%; right:20%; left:20%""><b>Eminem</b></br></br></br></br>b</div><div style = ""font-size:300%; text-align: center; position:fixed; top:70%; right:20%""><b>eris</b></br></br></br></br>n</div>","b","","","","","","","square","8","Eminem","Eminem","true","Stranger","","","","","","","","","","","","",""
"","sat_feedback","","html-keyboard-response","39","133289","0.0-18.0-2.7","Eminem","eris","","","","","","","","","","","","","","","","","","","","","null","<p style = 'font-size: 300%; color:green'>Correct!</p>","null","","","","","","","","","","","","","","","","","","","","","","","","",""
"","sat_fixationcross","","html-keyboard-response","40","133791","0.0-18.0-0.8","Eminem","eris","","","","","","","","","","","","","","","","","","","","","null","<div  style='font-size:500%; position:fixed; text-align: center; top:50%; bottom:50%; right:20%; left:20%'>+</div>","null","","","","","","500","","","","","","","","","","","","","","","","","","",""
"","sat_practicetrial","","html-keyboard-response","41","134330","0.0-18.0-1.8","Eminem","eris","","","","","","","","","","","","","","","","","","","","","539","<div style='bottom:60%; right:20%; left:20%; position:fixed'><img src=https://realitybending.github.io/IllusionGameSelfAssociation/experiment/SelfAssociation/stimuli/circle.png height=20%></img></div><div  style='font-size:500%; position:fixed; text-align: center; top:50%; bottom:50%; right:20%; left:20%'>+</div><div style = ""font-size:300%; text-align: center; position:fixed; top:70%; left:20%""><b>You</b></br></br></br></br>v</div><div style = ""font-size:300%; text-align: center; position:fixed; top:70%; right:20%; left:20%""><b>Eminem</b></br></br></br></br>b</div><div style = ""font-size:300%; text-align: center; position:fixed; top:70%; right:20%""><b>eris</b></br></br></br></br>n</div>","n","","","","","","","circle","9","eris","eris","true","Friend","","","","","","","","","","","","",""
"","sat_feedback","","html-keyboard-response","42","134831","0.0-18.0-2.8","Eminem","eris","","","","","","","","","","","","","","","","","","","","","null","<p style = 'font-size: 300%; color:green'>Correct!</p>","null","","","","","","","","","","","","","","","","","","","","","","","","",""
"","sat_fixationcross","","html-keyboard-response","43","135332","0.0-18.0-0.9","Eminem","eris","","","","","","","","","","","","","","","","","","","","","null","<div  style='font-size:500%; position:fixed; text-align: center; top:50%; bottom:50%; right:20%; left:20%'>+</div>","null","","","","","","500","","","","","","","","","","","","","","","","","","",""
"","sat_practicetrial","","html-keyboard-response","44","136140","0.0-18.0-1.9","Eminem","eris","","","","","","","","","","","","","","","","","","","","","807","<div style='bottom:60%; right:20%; left:20%; position:fixed'><img src=https://realitybending.github.io/IllusionGameSelfAssociation/experiment/SelfAssociation/stimuli/square.png height=20%></img></div><div  style='font-size:500%; position:fixed; text-align: center; top:50%; bottom:50%; right:20%; left:20%'>+</div><div style = ""font-size:300%; text-align: center; position:fixed; top:70%; left:20%""><b>You</b></br></br></br></br>v</div><div style = ""font-size:300%; text-align: center; position:fixed; top:70%; right:20%; left:20%""><b>Eminem</b></br></br></br></br>b</div><div style = ""font-size:300%; text-align: center; position:fixed; top:70%; right:20%""><b>eris</b></br></br></br></br>n</div>","b","","","","","","","square","10","Eminem","Eminem","true","Stranger","","","","","","","","","","","","",""
"","sat_feedback","","html-keyboard-response","45","136640","0.0-18.0-2.9","Eminem","eris","","","","","","","","","","","","","","","","","","","","","null","<p style = 'font-size: 300%; color:green'>Correct!</p>","null","","","","","","","","","","","","","","","","","","","","","","","","",""
"","sat_fixationcross","","html-keyboard-response","46","137141","0.0-18.0-0.10","Eminem","eris","","","","","","","","","","","","","","","","","","","","","null","<div  style='font-size:500%; position:fixed; text-align: center; top:50%; bottom:50%; right:20%; left:20%'>+</div>","null","","","","","","500","","","","","","","","","","","","","","","","","","",""
"","sat_practicetrial","","html-keyboard-response","47","137597","0.0-18.0-1.10","Eminem","eris","","","","","","","","","","","","","","","","","","","","","456","<div style='bottom:60%; right:20%; left:20%; position:fixed'><img src=https://realitybending.github.io/IllusionGameSelfAssociation/experiment/SelfAssociation/stimuli/triangle.png height=20%></img></div><div  style='font-size:500%; position:fixed; text-align: center; top:50%; bottom:50%; right:20%; left:20%'>+</div><div style = ""font-size:300%; text-align: center; position:fixed; top:70%; left:20%""><b>You</b></br></br></br></br>v</div><div style = ""font-size:300%; text-align: center; position:fixed; top:70%; right:20%; left:20%""><b>Eminem</b></br></br></br></br>b</div><div style = ""font-size:300%; text-align: center; position:fixed; top:70%; right:20%""><b>eris</b></br></br></br></br>n</div>","v","","","","","","","triangle","11","You","You","true","Self","","","","","","","","","","","","",""
"","sat_feedback","","html-keyboard-response","48","138098","0.0-18.0-2.10","Eminem","eris","","","","","","","","","","","","","","","","","","","","","null","<p style = 'font-size: 300%; color:green'>Correct!</p>","null","","","","","","","","","","","","","","","","","","","","","","","","",""
"","sat_fixationcross","","html-keyboard-response","49","138601","0.0-18.0-0.11","Eminem","eris","","","","","","","","","","","","","","","","","","","","","null","<div  style='font-size:500%; position:fixed; text-align: center; top:50%; bottom:50%; right:20%; left:20%'>+</div>","null","","","","","","500","","","","","","","","","","","","","","","","","","",""
"","sat_practicetrial","","html-keyboard-response","50","139147","0.0-18.0-1.11","Eminem","eris","","","","","","","","","","","","","","","","","","","","","545","<div style='bottom:60%; right:20%; left:20%; position:fixed'><img src=https://realitybending.github.io/IllusionGameSelfAssociation/experiment/SelfAssociation/stimuli/square.png height=20%></img></div><div  style='font-size:500%; position:fixed; text-align: center; top:50%; bottom:50%; right:20%; left:20%'>+</div><div style = ""font-size:300%; text-align: center; position:fixed; top:70%; left:20%""><b>You</b></br></br></br></br>v</div><div style = ""font-size:300%; text-align: center; position:fixed; top:70%; right:20%; left:20%""><b>Eminem</b></br></br></br></br>b</div><div style = ""font-size:300%; text-align: center; position:fixed; top:70%; right:20%""><b>eris</b></br></br></br></br>n</div>","b","","","","","","","square","12","Eminem","Eminem","true","Stranger","","","","","","","","","","","","",""
"","sat_feedback","","html-keyboard-response","51","139648","0.0-18.0-2.11","Eminem","eris","","","","","","","","","","","","","","","","","","","","","null","<p style = 'font-size: 300%; color:green'>Correct!</p>","null","","","","","","","","","","","","","","","","","","","","","","","","",""
"","sat_fixationcross","","html-keyboard-response","52","140149","0.0-18.0-0.12","Eminem","eris","","","","","","","","","","","","","","","","","","","","","null","<div  style='font-size:500%; position:fixed; text-align: center; top:50%; bottom:50%; right:20%; left:20%'>+</div>","null","","","","","","500","","","","","","","","","","","","","","","","","","",""
"","sat_practicetrial","","html-keyboard-response","53","140576","0.0-18.0-1.12","Eminem","eris","","","","","","","","","","","","","","","","","","","","","427","<div style='bottom:60%; right:20%; left:20%; position:fixed'><img src=https://realitybending.github.io/IllusionGameSelfAssociation/experiment/SelfAssociation/stimuli/square.png height=20%></img></div><div  style='font-size:500%; position:fixed; text-align: center; top:50%; bottom:50%; right:20%; left:20%'>+</div><div style = ""font-size:300%; text-align: center; position:fixed; top:70%; left:20%""><b>You</b></br></br></br></br>v</div><div style = ""font-size:300%; text-align: center; position:fixed; top:70%; right:20%; left:20%""><b>Eminem</b></br></br></br></br>b</div><div style = ""font-size:300%; text-align: center; position:fixed; top:70%; right:20%""><b>eris</b></br></br></br></br>n</div>","b","","","","","","","square","13","Eminem","Eminem","true","Stranger","","","","","","","","","","","","",""
"","sat_feedback","","html-keyboard-response","54","141078","0.0-18.0-2.12","Eminem","eris","","","","","","","","","","","","","","","","","","","","","null","<p style = 'font-size: 300%; color:green'>Correct!</p>","null","","","","","","","","","","","","","","","","","","","","","","","","",""
"","sat_fixationcross","","html-keyboard-response","55","141580","0.0-18.0-0.13","Eminem","eris","","","","","","","","","","","","","","","","","","","","","null","<div  style='font-size:500%; position:fixed; text-align: center; top:50%; bottom:50%; right:20%; left:20%'>+</div>","null","","","","","","500","","","","","","","","","","","","","","","","","","",""
"","sat_practicetrial","","html-keyboard-response","56","142033","0.0-18.0-1.13","Eminem","eris","","","","","","","","","","","","","","","","","","","","","453","<div style='bottom:60%; right:20%; left:20%; position:fixed'><img src=https://realitybending.github.io/IllusionGameSelfAssociation/experiment/SelfAssociation/stimuli/circle.png height=20%></img></div><div  style='font-size:500%; position:fixed; text-align: center; top:50%; bottom:50%; right:20%; left:20%'>+</div><div style = ""font-size:300%; text-align: center; position:fixed; top:70%; left:20%""><b>You</b></br></br></br></br>v</div><div style = ""font-size:300%; text-align: center; position:fixed; top:70%; right:20%; left:20%""><b>Eminem</b></br></br></br></br>b</div><div style = ""font-size:300%; text-align: center; position:fixed; top:70%; right:20%""><b>eris</b></br></br></br></br>n</div>","n","","","","","","","circle","14","eris","eris","true","Friend","","","","","","","","","","","","",""
"","sat_feedback","","html-keyboard-response","57","142535","0.0-18.0-2.13","Eminem","eris","","","","","","","","","","","","","","","","","","","","","null","<p style = 'font-size: 300%; color:green'>Correct!</p>","null","","","","","","","","","","","","","","","","","","","","","","","","",""
"","sat_fixationcross","","html-keyboard-response","58","143037","0.0-18.0-0.14","Eminem","eris","","","","","","","","","","","","","","","","","","","","","null","<div  style='font-size:500%; position:fixed; text-align: center; top:50%; bottom:50%; right:20%; left:20%'>+</div>","null","","","","","","500","","","","","","","","","","","","","","","","","","",""
"","sat_practicetrial","","html-keyboard-response","59","143512","0.0-18.0-1.14","Eminem","eris","","","","","","","","","","","","","","","","","","","","","475","<div style='bottom:60%; right:20%; left:20%; position:fixed'><img src=https://realitybending.github.io/IllusionGameSelfAssociation/experiment/SelfAssociation/stimuli/triangle.png height=20%></img></div><div  style='font-size:500%; position:fixed; text-align: center; top:50%; bottom:50%; right:20%; left:20%'>+</div><div style = ""font-size:300%; text-align: center; position:fixed; top:70%; left:20%""><b>You</b></br></br></br></br>v</div><div style = ""font-size:300%; text-align: center; position:fixed; top:70%; right:20%; left:20%""><b>Eminem</b></br></br></br></br>b</div><div style = ""font-size:300%; text-align: center; position:fixed; top:70%; right:20%""><b>eris</b></br></br></br></br>n</div>","v","","","","","","","triangle","15","You","You","true","Self","","","","","","","","","","","","",""
"","sat_feedback","","html-keyboard-response","60","144014","0.0-18.0-2.14","Eminem","eris","","","","","","","","","","","","","","","","","","","","","null","<p style = 'font-size: 300%; color:green'>Correct!</p>","null","","","","","","","","","","","","","","","","","","","","","","","","",""
"","sat_fixationcross","","html-keyboard-response","61","144516","0.0-18.0-0.15","Eminem","eris","","","","","","","","","","","","","","","","","","","","","null","<div  style='font-size:500%; position:fixed; text-align: center; top:50%; bottom:50%; right:20%; left:20%'>+</div>","null","","","","","","500","","","","","","","","","","","","","","","","","","",""
"","sat_practicetrial","","html-keyboard-response","62","145056","0.0-18.0-1.15","Eminem","eris","","","","","","","","","","","","","","","","","","","","","539","<div style='bottom:60%; right:20%; left:20%; position:fixed'><img src=https://realitybending.github.io/IllusionGameSelfAssociation/experiment/SelfAssociation/stimuli/triangle.png height=20%></img></div><div  style='font-size:500%; position:fixed; text-align: center; top:50%; bottom:50%; right:20%; left:20%'>+</div><div style = ""font-size:300%; text-align: center; position:fixed; top:70%; left:20%""><b>You</b></br></br></br></br>v</div><div style = ""font-size:300%; text-align: center; position:fixed; top:70%; right:20%; left:20%""><b>Eminem</b></br></br></br></br>b</div><div style = ""font-size:300%; text-align: center; position:fixed; top:70%; right:20%""><b>eris</b></br></br></br></br>n</div>","v","","","","","","","triangle","16","You","You","true","Self","","","","","","","","","","","","",""
"","sat_feedback","","html-keyboard-response","63","145558","0.0-18.0-2.15","Eminem","eris","","","","","","","","","","","","","","","","","","","","","null","<p style = 'font-size: 300%; color:green'>Correct!</p>","null","","","","","","","","","","","","","","","","","","","","","","","","",""
"","sat_fixationcross","","html-keyboard-response","64","146059","0.0-18.0-0.16","Eminem","eris","","","","","","","","","","","","","","","","","","","","","null","<div  style='font-size:500%; position:fixed; text-align: center; top:50%; bottom:50%; right:20%; left:20%'>+</div>","null","","","","","","500","","","","","","","","","","","","","","","","","","",""
"","sat_practicetrial","","html-keyboard-response","65","146484","0.0-18.0-1.16","Eminem","eris","","","","","","","","","","","","","","","","","","","","","425","<div style='bottom:60%; right:20%; left:20%; position:fixed'><img src=https://realitybending.github.io/IllusionGameSelfAssociation/experiment/SelfAssociation/stimuli/triangle.png height=20%></img></div><div  style='font-size:500%; position:fixed; text-align: center; top:50%; bottom:50%; right:20%; left:20%'>+</div><div style = ""font-size:300%; text-align: center; position:fixed; top:70%; left:20%""><b>You</b></br></br></br></br>v</div><div style = ""font-size:300%; text-align: center; position:fixed; top:70%; right:20%; left:20%""><b>Eminem</b></br></br></br></br>b</div><div style = ""font-size:300%; text-align: center; position:fixed; top:70%; right:20%""><b>eris</b></br></br></br></br>n</div>","v","","","","","","","triangle","17","You","You","true","Self","","","","","","","","","","","","",""
"","sat_feedback","","html-keyboard-response","66","146986","0.0-18.0-2.16","Eminem","eris","","","","","","","","","","","","","","","","","","","","","null","<p style = 'font-size: 300%; color:green'>Correct!</p>","null","","","","","","","","","","","","","","","","","","","","","","","","",""
"","sat_fixationcross","","html-keyboard-response","67","147489","0.0-18.0-0.17","Eminem","eris","","","","","","","","","","","","","","","","","","","","","null","<div  style='font-size:500%; position:fixed; text-align: center; top:50%; bottom:50%; right:20%; left:20%'>+</div>","null","","","","","","500","","","","","","","","","","","","","","","","","","",""
"","sat_practicetrial","","html-keyboard-response","68","148183","0.0-18.0-1.17","Eminem","eris","","","","","","","","","","","","","","","","","","","","","694","<div style='bottom:60%; right:20%; left:20%; position:fixed'><img src=https://realitybending.github.io/IllusionGameSelfAssociation/experiment/SelfAssociation/stimuli/square.png height=20%></img></div><div  style='font-size:500%; position:fixed; text-align: center; top:50%; bottom:50%; right:20%; left:20%'>+</div><div style = ""font-size:300%; text-align: center; position:fixed; top:70%; left:20%""><b>You</b></br></br></br></br>v</div><div style = ""font-size:300%; text-align: center; position:fixed; top:70%; right:20%; left:20%""><b>Eminem</b></br></br></br></br>b</div><div style = ""font-size:300%; text-align: center; position:fixed; top:70%; right:20%""><b>eris</b></br></br></br></br>n</div>","b","","","","","","","square","18","Eminem","Eminem","true","Stranger","","","","","","","","","","","","",""
"","sat_feedback","","html-keyboard-response","69","148685","0.0-18.0-2.17","Eminem","eris","","","","","","","","","","","","","","","","","","","","","null","<p style = 'font-size: 300%; color:green'>Correct!</p>","null","","","","","","","","","","","","","","","","","","","","","","","","",""
"","sat_fixationcross","","html-keyboard-response","70","149188","0.0-18.0-0.18","Eminem","eris","","","","","","","","","","","","","","","","","","","","","null","<div  style='font-size:500%; position:fixed; text-align: center; top:50%; bottom:50%; right:20%; left:20%'>+</div>","null","","","","","","500","","","","","","","","","","","","","","","","","","",""
"","sat_practicetrial","","html-keyboard-response","71","149632","0.0-18.0-1.18","Eminem","eris","","","","","","","","","","","","","","","","","","","","","443","<div style='bottom:60%; right:20%; left:20%; position:fixed'><img src=https://realitybending.github.io/IllusionGameSelfAssociation/experiment/SelfAssociation/stimuli/square.png height=20%></img></div><div  style='font-size:500%; position:fixed; text-align: center; top:50%; bottom:50%; right:20%; left:20%'>+</div><div style = ""font-size:300%; text-align: center; position:fixed; top:70%; left:20%""><b>You</b></br></br></br></br>v</div><div style = ""font-size:300%; text-align: center; position:fixed; top:70%; right:20%; left:20%""><b>Eminem</b></br></br></br></br>b</div><div style = ""font-size:300%; text-align: center; position:fixed; top:70%; right:20%""><b>eris</b></br></br></br></br>n</div>","b","","","","","","","square","19","Eminem","Eminem","true","Stranger","","","","","","","","","","","","",""
"","sat_feedback","","html-keyboard-response","72","150135","0.0-18.0-2.18","Eminem","eris","","","","","","","","","","","","","","","","","","","","","null","<p style = 'font-size: 300%; color:green'>Correct!</p>","null","","","","","","","","","","","","","","","","","","","","","","","","",""
"","sat_fixationcross","","html-keyboard-response","73","150636","0.0-18.0-0.19","Eminem","eris","","","","","","","","","","","","","","","","","","","","","null","<div  style='font-size:500%; position:fixed; text-align: center; top:50%; bottom:50%; right:20%; left:20%'>+</div>","null","","","","","","500","","","","","","","","","","","","","","","","","","",""
"","sat_practicetrial","","html-keyboard-response","74","151121","0.0-18.0-1.19","Eminem","eris","","","","","","","","","","","","","","","","","","","","","484","<div style='bottom:60%; right:20%; left:20%; position:fixed'><img src=https://realitybending.github.io/IllusionGameSelfAssociation/experiment/SelfAssociation/stimuli/triangle.png height=20%></img></div><div  style='font-size:500%; position:fixed; text-align: center; top:50%; bottom:50%; right:20%; left:20%'>+</div><div style = ""font-size:300%; text-align: center; position:fixed; top:70%; left:20%""><b>You</b></br></br></br></br>v</div><div style = ""font-size:300%; text-align: center; position:fixed; top:70%; right:20%; left:20%""><b>Eminem</b></br></br></br></br>b</div><div style = ""font-size:300%; text-align: center; position:fixed; top:70%; right:20%""><b>eris</b></br></br></br></br>n</div>","v","","","","","","","triangle","20","You","You","true","Self","","","","","","","","","","","","",""
"","sat_feedback","","html-keyboard-response","75","151622","0.0-18.0-2.19","Eminem","eris","","","","","","","","","","","","","","","","","","","","","null","<p style = 'font-size: 300%; color:green'>Correct!</p>","null","","","","","","","","","","","","","","","","","","","","","","","","",""
"","sat_fixationcross","","html-keyboard-response","76","152123","0.0-18.0-0.20","Eminem","eris","","","","","","","","","","","","","","","","","","","","","null","<div  style='font-size:500%; position:fixed; text-align: center; top:50%; bottom:50%; right:20%; left:20%'>+</div>","null","","","","","","500","","","","","","","","","","","","","","","","","","",""
"","sat_practicetrial","","html-keyboard-response","77","152580","0.0-18.0-1.20","Eminem","eris","","","","","","","","","","","","","","","","","","","","","456","<div style='bottom:60%; right:20%; left:20%; position:fixed'><img src=https://realitybending.github.io/IllusionGameSelfAssociation/experiment/SelfAssociation/stimuli/square.png height=20%></img></div><div  style='font-size:500%; position:fixed; text-align: center; top:50%; bottom:50%; right:20%; left:20%'>+</div><div style = ""font-size:300%; text-align: center; position:fixed; top:70%; left:20%""><b>You</b></br></br></br></br>v</div><div style = ""font-size:300%; text-align: center; position:fixed; top:70%; right:20%; left:20%""><b>Eminem</b></br></br></br></br>b</div><div style = ""font-size:300%; text-align: center; position:fixed; top:70%; right:20%""><b>eris</b></br></br></br></br>n</div>","b","","","","","","","square","21","Eminem","Eminem","true","Stranger","","","","","","","","","","","","",""
"","sat_feedback","","html-keyboard-response","78","153082","0.0-18.0-2.20","Eminem","eris","","","","","","","","","","","","","","","","","","","","","null","<p style = 'font-size: 300%; color:green'>Correct!</p>","null","","","","","","","","","","","","","","","","","","","","","","","","",""
"","sat_fixationcross","","html-keyboard-response","79","153583","0.0-18.0-0.21","Eminem","eris","","","","","","","","","","","","","","","","","","","","","null","<div  style='font-size:500%; position:fixed; text-align: center; top:50%; bottom:50%; right:20%; left:20%'>+</div>","null","","","","","","500","","","","","","","","","","","","","","","","","","",""
"","sat_practicetrial","","html-keyboard-response","80","154112","0.0-18.0-1.21","Eminem","eris","","","","","","","","","","","","","","","","","","","","","529","<div style='bottom:60%; right:20%; left:20%; position:fixed'><img src=https://realitybending.github.io/IllusionGameSelfAssociation/experiment/SelfAssociation/stimuli/triangle.png height=20%></img></div><div  style='font-size:500%; position:fixed; text-align: center; top:50%; bottom:50%; right:20%; left:20%'>+</div><div style = ""font-size:300%; text-align: center; position:fixed; top:70%; left:20%""><b>You</b></br></br></br></br>v</div><div style = ""font-size:300%; text-align: center; position:fixed; top:70%; right:20%; left:20%""><b>Eminem</b></br></br></br></br>b</div><div style = ""font-size:300%; text-align: center; position:fixed; top:70%; right:20%""><b>eris</b></br></br></br></br>n</div>","v","","","","","","","triangle","22","You","You","true","Self","","","","","","","","","","","","",""
"","sat_feedback","","html-keyboard-response","81","154614","0.0-18.0-2.21","Eminem","eris","","","","","","","","","","","","","","","","","","","","","null","<p style = 'font-size: 300%; color:green'>Correct!</p>","null","","","","","","","","","","","","","","","","","","","","","","","","",""
"","sat_fixationcross","","html-keyboard-response","82","155115","0.0-18.0-0.22","Eminem","eris","","","","","","","","","","","","","","","","","","","","","null","<div  style='font-size:500%; position:fixed; text-align: center; top:50%; bottom:50%; right:20%; left:20%'>+</div>","null","","","","","","500","","","","","","","","","","","","","","","","","","",""
"","sat_practicetrial","","html-keyboard-response","83","155646","0.0-18.0-1.22","Eminem","eris","","","","","","","","","","","","","","","","","","","","","531","<div style='bottom:60%; right:20%; left:20%; position:fixed'><img src=https://realitybending.github.io/IllusionGameSelfAssociation/experiment/SelfAssociation/stimuli/circle.png height=20%></img></div><div  style='font-size:500%; position:fixed; text-align: center; top:50%; bottom:50%; right:20%; left:20%'>+</div><div style = ""font-size:300%; text-align: center; position:fixed; top:70%; left:20%""><b>You</b></br></br></br></br>v</div><div style = ""font-size:300%; text-align: center; position:fixed; top:70%; right:20%; left:20%""><b>Eminem</b></br></br></br></br>b</div><div style = ""font-size:300%; text-align: center; position:fixed; top:70%; right:20%""><b>eris</b></br></br></br></br>n</div>","n","","","","","","","circle","23","eris","eris","true","Friend","","","","","","","","","","","","",""
"","sat_feedback","","html-keyboard-response","84","156147","0.0-18.0-2.22","Eminem","eris","","","","","","","","","","","","","","","","","","","","","null","<p style = 'font-size: 300%; color:green'>Correct!</p>","null","","","","","","","","","","","","","","","","","","","","","","","","",""
"","sat_fixationcross","","html-keyboard-response","85","156648","0.0-18.0-0.23","Eminem","eris","","","","","","","","","","","","","","","","","","","","","null","<div  style='font-size:500%; position:fixed; text-align: center; top:50%; bottom:50%; right:20%; left:20%'>+</div>","null","","","","","","500","","","","","","","","","","","","","","","","","","",""
"","sat_practicetrial","","html-keyboard-response","86","157250","0.0-18.0-1.23","Eminem","eris","","","","","","","","","","","","","","","","","","","","","602","<div style='bottom:60%; right:20%; left:20%; position:fixed'><img src=https://realitybending.github.io/IllusionGameSelfAssociation/experiment/SelfAssociation/stimuli/square.png height=20%></img></div><div  style='font-size:500%; position:fixed; text-align: center; top:50%; bottom:50%; right:20%; left:20%'>+</div><div style = ""font-size:300%; text-align: center; position:fixed; top:70%; left:20%""><b>You</b></br></br></br></br>v</div><div style = ""font-size:300%; text-align: center; position:fixed; top:70%; right:20%; left:20%""><b>Eminem</b></br></br></br></br>b</div><div style = ""font-size:300%; text-align: center; position:fixed; top:70%; right:20%""><b>eris</b></br></br></br></br>n</div>","b","","","","","","","square","24","Eminem","Eminem","true","Stranger","","","","","","","","","","","","",""
"","sat_feedback","","html-keyboard-response","87","157753","0.0-18.0-2.23","Eminem","eris","","","","","","","","","","","","","","","","","","","","","null","<p style = 'font-size: 300%; color:green'>Correct!</p>","null","","","","","","","","","","","","","","","","","","","","","","","","",""
"","sat_fixationcross","","html-keyboard-response","88","158255","0.0-18.0-0.24","Eminem","eris","","","","","","","","","","","","","","","","","","","","","null","<div  style='font-size:500%; position:fixed; text-align: center; top:50%; bottom:50%; right:20%; left:20%'>+</div>","null","","","","","","500","","","","","","","","","","","","","","","","","","",""
"","sat_practicetrial","","html-keyboard-response","89","158794","0.0-18.0-1.24","Eminem","eris","","","","","","","","","","","","","","","","","","","","","539","<div style='bottom:60%; right:20%; left:20%; position:fixed'><img src=https://realitybending.github.io/IllusionGameSelfAssociation/experiment/SelfAssociation/stimuli/circle.png height=20%></img></div><div  style='font-size:500%; position:fixed; text-align: center; top:50%; bottom:50%; right:20%; left:20%'>+</div><div style = ""font-size:300%; text-align: center; position:fixed; top:70%; left:20%""><b>You</b></br></br></br></br>v</div><div style = ""font-size:300%; text-align: center; position:fixed; top:70%; right:20%; left:20%""><b>Eminem</b></br></br></br></br>b</div><div style = ""font-size:300%; text-align: center; position:fixed; top:70%; right:20%""><b>eris</b></br></br></br></br>n</div>","n","","","","","","","circle","25","eris","eris","true","Friend","","","","","","","","","","","","",""
"","sat_practice_end","","html-button-response","90","160557","0.0-19.0","Eminem","eris","","","","","","","","","","","","","","","","","","","","","1761","<h1>Congratulations!</h1><p>You have completed the training.</p>","0","","","","","","","","","","","","","","","","","","","","","","","","",""
"","matching_instructions","","html-button-response","91","169802","0.0-20.0","Eminem","eris","","","","","","","","","","","","","","","","","","","","","9245","<h1>Instructions</h1><p>In this part of the game, the previous shapes will be re-assigned to the labels.</p><p>Your task will be then to decide if the presented shape matches their newly assigned label as quickly and accurately as possible.</p><p>If the shape-label pair is a <b>match</b>, press <b>'e'</b>.</p><p>If the shape-label pair is <b>not a match</b>, press <b>'i'</b></p><br><p>Good luck!</p>","0","","","","","","","","","","","","","","","","","","","","","","","","",""
"","SAT_assignmentscreen","","html-button-response","92","173784","0.0-21.0","Eminem","eris","","","","","","","","","","","","","","","","","","","","","3981","<h1>Instructions</h1><div id ='align-middle'><b>You</b> will be represented by a  <b>square</b>  <img src= https://realitybending.github.io/IllusionGameSelfAssociation/experiment/SelfAssociation/stimuli/square.png height=40></img></div><br><div id ='align-middle'><b>Eminem</b> will be represented by a  <b>circle</b>  <img src= https://realitybending.github.io/IllusionGameSelfAssociation/experiment/SelfAssociation/stimuli/circle.png height=40></img></div><br><div id = 'align-middle'><b>eris</b> will be represented by a  <b>triangle</b>  <img src= https://realitybending.github.io/IllusionGameSelfAssociation/experiment/SelfAssociation/stimuli/triangle.png height=40></img></div><br>","0","","","","","","","","","","","","","","","","","","","","","","","","",""
"","sat_fixationcross","","html-keyboard-response","93","174285","0.0-22.0-0.0","Eminem","eris","","","","","","","","","","","","","","","","","","","","","null","<div  style='font-size:500%; position:fixed; text-align: center; top:50%; bottom:50%; right:20%; left:20%'>+</div>","null","","","","","","500","","","","","","","","","","","","","","","","","","",""
"","sat_trial","","html-keyboard-response","94","175244","0.0-22.0-1.0","Eminem","eris","","","","","","","","","","","","","","","","","","","","","959","<div style='bottom:60%; right:20%; left:20%; position:fixed'><img src=https://realitybending.github.io/IllusionGameSelfAssociation/experiment/SelfAssociation/stimuli/square.png height=20%></img></div><div  style='font-size:500%; position:fixed; text-align: center; top:50%; bottom:50%; right:20%; left:20%'>+</div><div style = ""font-size:300%; text-align: center; position:fixed; top:70%; right:20%; left:20%""><b>You</div>","e","","","","","","","square","1","match","match","true","","Self","1","","","","","","","","","","",""
"","sat_feedback","","html-keyboard-response","95","175745","0.0-22.0-2.0","Eminem","eris","","","","","","","","","","","","","","","","","","","","","null","<p style = 'font-size: 300%; color:green'>Correct!</p>","null","","","","","","","","","","","","","","","","","","","","","","","","",""
"","sat_fixationcross","","html-keyboard-response","96","176247","0.0-22.0-0.1","Eminem","eris","","","","","","","","","","","","","","","","","","","","","null","<div  style='font-size:500%; position:fixed; text-align: center; top:50%; bottom:50%; right:20%; left:20%'>+</div>","null","","","","","","500","","","","","","","","","","","","","","","","","","",""
"","sat_trial","","html-keyboard-response","97","178060","0.0-22.0-1.1","Eminem","eris","","","","","","","","","","","","","","","","","","","","","1813","<div style='bottom:60%; right:20%; left:20%; position:fixed'><img src=https://realitybending.github.io/IllusionGameSelfAssociation/experiment/SelfAssociation/stimuli/square.png height=20%></img></div><div  style='font-size:500%; position:fixed; text-align: center; top:50%; bottom:50%; right:20%; left:20%'>+</div><div style = ""font-size:300%; text-align: center; position:fixed; top:70%; right:20%; left:20%""><b>eris</div>","i","","","","","","","square","2","mismatch","mismatch","true","","Friend","1","","","","","","","","","","",""
"","sat_feedback","","html-keyboard-response","98","178561","0.0-22.0-2.1","Eminem","eris","","","","","","","","","","","","","","","","","","","","","null","<p style = 'font-size: 300%; color:green'>Correct!</p>","null","","","","","","","","","","","","","","","","","","","","","","","","",""
"","sat_fixationcross","","html-keyboard-response","99","179062","0.0-22.0-0.2","Eminem","eris","","","","","","","","","","","","","","","","","","","","","null","<div  style='font-size:500%; position:fixed; text-align: center; top:50%; bottom:50%; right:20%; left:20%'>+</div>","null","","","","","","500","","","","","","","","","","","","","","","","","","",""
"","sat_trial","","html-keyboard-response","100","179851","0.0-22.0-1.2","Eminem","eris","","","","","","","","","","","","","","","","","","","","","788","<div style='bottom:60%; right:20%; left:20%; position:fixed'><img src=https://realitybending.github.io/IllusionGameSelfAssociation/experiment/SelfAssociation/stimuli/square.png height=20%></img></div><div  style='font-size:500%; position:fixed; text-align: center; top:50%; bottom:50%; right:20%; left:20%'>+</div><div style = ""font-size:300%; text-align: center; position:fixed; top:70%; right:20%; left:20%""><b>You</div>","e","","","","","","","square","3","match","match","true","","Self","1","","","","","","","","","","",""
"","sat_feedback","","html-keyboard-response","101","180353","0.0-22.0-2.2","Eminem","eris","","","","","","","","","","","","","","","","","","","","","null","<p style = 'font-size: 300%; color:green'>Correct!</p>","null","","","","","","","","","","","","","","","","","","","","","","","","",""
"","sat_fixationcross","","html-keyboard-response","102","180855","0.0-22.0-0.3","Eminem","eris","","","","","","","","","","","","","","","","","","","","","null","<div  style='font-size:500%; position:fixed; text-align: center; top:50%; bottom:50%; right:20%; left:20%'>+</div>","null","","","","","","500","","","","","","","","","","","","","","","","","","",""
"","sat_trial","","html-keyboard-response","103","181991","0.0-22.0-1.3","Eminem","eris","","","","","","","","","","","","","","","","","","","","","1136","<div style='bottom:60%; right:20%; left:20%; position:fixed'><img src=https://realitybending.github.io/IllusionGameSelfAssociation/experiment/SelfAssociation/stimuli/square.png height=20%></img></div><div  style='font-size:500%; position:fixed; text-align: center; top:50%; bottom:50%; right:20%; left:20%'>+</div><div style = ""font-size:300%; text-align: center; position:fixed; top:70%; right:20%; left:20%""><b>eris</div>","e","","","","","","","square","4","match","mismatch","false","","Friend","1","","","","","","","","","","",""
"","sat_feedback","","html-keyboard-response","104","182492","0.0-22.0-2.3","Eminem","eris","","","","","","","","","","","","","","","","","","","","","null","<p style = 'font-size: 300%; color:red'>Incorrect!</p>","null","","","","","","","","","","","","","","","","","","","","","","","","",""
"","sat_fixationcross","","html-keyboard-response","105","182994","0.0-22.0-0.4","Eminem","eris","","","","","","","","","","","","","","","","","","","","","null","<div  style='font-size:500%; position:fixed; text-align: center; top:50%; bottom:50%; right:20%; left:20%'>+</div>","null","","","","","","500","","","","","","","","","","","","","","","","","","",""
"","sat_trial","","html-keyboard-response","106","183580","0.0-22.0-1.4","Eminem","eris","","","","","","","","","","","","","","","","","","","","","586","<div style='bottom:60%; right:20%; left:20%; position:fixed'><img src=https://realitybending.github.io/IllusionGameSelfAssociation/experiment/SelfAssociation/stimuli/square.png height=20%></img></div><div  style='font-size:500%; position:fixed; text-align: center; top:50%; bottom:50%; right:20%; left:20%'>+</div><div style = ""font-size:300%; text-align: center; position:fixed; top:70%; right:20%; left:20%""><b>You</div>","e","","","","","","","square","5","match","match","true","","Self","1","","","","","","","","","","",""
"","sat_feedback","","html-keyboard-response","107","184082","0.0-22.0-2.4","Eminem","eris","","","","","","","","","","","","","","","","","","","","","null","<p style = 'font-size: 300%; color:green'>Correct!</p>","null","","","","","","","","","","","","","","","","","","","","","","","","",""
"","sat_fixationcross","","html-keyboard-response","108","184583","0.0-22.0-0.5","Eminem","eris","","","","","","","","","","","","","","","","","","","","","null","<div  style='font-size:500%; position:fixed; text-align: center; top:50%; bottom:50%; right:20%; left:20%'>+</div>","null","","","","","","500","","","","","","","","","","","","","","","","","","",""
"","sat_trial","","html-keyboard-response","109","185123","0.0-22.0-1.5","Eminem","eris","","","","","","","","","","","","","","","","","","","","","540","<div style='bottom:60%; right:20%; left:20%; position:fixed'><img src=https://realitybending.github.io/IllusionGameSelfAssociation/experiment/SelfAssociation/stimuli/square.png height=20%></img></div><div  style='font-size:500%; position:fixed; text-align: center; top:50%; bottom:50%; right:20%; left:20%'>+</div><div style = ""font-size:300%; text-align: center; position:fixed; top:70%; right:20%; left:20%""><b>You</div>","i","","","","","","","square","6","mismatch","match","false","","Self","1","","","","","","","","","","",""
"","sat_feedback","","html-keyboard-response","110","185624","0.0-22.0-2.5","Eminem","eris","","","","","","","","","","","","","","","","","","","","","null","<p style = 'font-size: 300%; color:red'>Incorrect!</p>","null","","","","","","","","","","","","","","","","","","","","","","","","",""
"","sat_fixationcross","","html-keyboard-response","111","186126","0.0-22.0-0.6","Eminem","eris","","","","","","","","","","","","","","","","","","","","","null","<div  style='font-size:500%; position:fixed; text-align: center; top:50%; bottom:50%; right:20%; left:20%'>+</div>","null","","","","","","500","","","","","","","","","","","","","","","","","","",""
"","sat_trial","","html-keyboard-response","112","186903","0.0-22.0-1.6","Eminem","eris","","","","","","","","","","","","","","","","","","","","","777","<div style='bottom:60%; right:20%; left:20%; position:fixed'><img src=https://realitybending.github.io/IllusionGameSelfAssociation/experiment/SelfAssociation/stimuli/square.png height=20%></img></div><div  style='font-size:500%; position:fixed; text-align: center; top:50%; bottom:50%; right:20%; left:20%'>+</div><div style = ""font-size:300%; text-align: center; position:fixed; top:70%; right:20%; left:20%""><b>Eminem</div>","i","","","","","","","square","7","mismatch","mismatch","true","","Stranger","1","","","","","","","","","","",""
"","sat_feedback","","html-keyboard-response","113","187404","0.0-22.0-2.6","Eminem","eris","","","","","","","","","","","","","","","","","","","","","null","<p style = 'font-size: 300%; color:green'>Correct!</p>","null","","","","","","","","","","","","","","","","","","","","","","","","",""
"","sat_fixationcross","","html-keyboard-response","114","187905","0.0-22.0-0.7","Eminem","eris","","","","","","","","","","","","","","","","","","","","","null","<div  style='font-size:500%; position:fixed; text-align: center; top:50%; bottom:50%; right:20%; left:20%'>+</div>","null","","","","","","500","","","","","","","","","","","","","","","","","","",""
"","sat_trial","","html-keyboard-response","115","189253","0.0-22.0-1.7","Eminem","eris","","","","","","","","","","","","","","","","","","","","","1348","<div style='bottom:60%; right:20%; left:20%; position:fixed'><img src=https://realitybending.github.io/IllusionGameSelfAssociation/experiment/SelfAssociation/stimuli/triangle.png height=20%></img></div><div  style='font-size:500%; position:fixed; text-align: center; top:50%; bottom:50%; right:20%; left:20%'>+</div><div style = ""font-size:300%; text-align: center; position:fixed; top:70%; right:20%; left:20%""><b>Eminem</div>","e","","","","","","","triangle","8","match","mismatch","false","","Stranger","1","","","","","","","","","","",""
"","sat_feedback","","html-keyboard-response","116","189754","0.0-22.0-2.7","Eminem","eris","","","","","","","","","","","","","","","","","","","","","null","<p style = 'font-size: 300%; color:red'>Incorrect!</p>","null","","","","","","","","","","","","","","","","","","","","","","","","",""
"","sat_fixationcross","","html-keyboard-response","117","190256","0.0-22.0-0.8","Eminem","eris","","","","","","","","","","","","","","","","","","","","","null","<div  style='font-size:500%; position:fixed; text-align: center; top:50%; bottom:50%; right:20%; left:20%'>+</div>","null","","","","","","500","","","","","","","","","","","","","","","","","","",""
"","sat_trial","","html-keyboard-response","118","191664","0.0-22.0-1.8","Eminem","eris","","","","","","","","","","","","","","","","","","","","","1408","<div style='bottom:60%; right:20%; left:20%; position:fixed'><img src=https://realitybending.github.io/IllusionGameSelfAssociation/experiment/SelfAssociation/stimuli/square.png height=20%></img></div><div  style='font-size:500%; position:fixed; text-align: center; top:50%; bottom:50%; right:20%; left:20%'>+</div><div style = ""font-size:300%; text-align: center; position:fixed; top:70%; right:20%; left:20%""><b>eris</div>","i","","","","","","","square","9","mismatch","mismatch","true","","Friend","1","","","","","","","","","","",""
"","sat_feedback","","html-keyboard-response","119","192165","0.0-22.0-2.8","Eminem","eris","","","","","","","","","","","","","","","","","","","","","null","<p style = 'font-size: 300%; color:green'>Correct!</p>","null","","","","","","","","","","","","","","","","","","","","","","","","",""
"","sat_fixationcross","","html-keyboard-response","120","192667","0.0-22.0-0.9","Eminem","eris","","","","","","","","","","","","","","","","","","","","","null","<div  style='font-size:500%; position:fixed; text-align: center; top:50%; bottom:50%; right:20%; left:20%'>+</div>","null","","","","","","500","","","","","","","","","","","","","","","","","","",""
"","sat_trial","","html-keyboard-response","121","194160","0.0-22.0-1.9","Eminem","eris","","","","","","","","","","","","","","","","","","","","","1492","<div style='bottom:60%; right:20%; left:20%; position:fixed'><img src=https://realitybending.github.io/IllusionGameSelfAssociation/experiment/SelfAssociation/stimuli/triangle.png height=20%></img></div><div  style='font-size:500%; position:fixed; text-align: center; top:50%; bottom:50%; right:20%; left:20%'>+</div><div style = ""font-size:300%; text-align: center; position:fixed; top:70%; right:20%; left:20%""><b>eris</div>","e","","","","","","","triangle","10","match","match","true","","Friend","1","","","","","","","","","","",""
"","sat_feedback","","html-keyboard-response","122","194662","0.0-22.0-2.9","Eminem","eris","","","","","","","","","","","","","","","","","","","","","null","<p style = 'font-size: 300%; color:green'>Correct!</p>","null","","","","","","","","","","","","","","","","","","","","","","","","",""
"","sat_fixationcross","","html-keyboard-response","123","195162","0.0-22.0-0.10","Eminem","eris","","","","","","","","","","","","","","","","","","","","","null","<div  style='font-size:500%; position:fixed; text-align: center; top:50%; bottom:50%; right:20%; left:20%'>+</div>","null","","","","","","500","","","","","","","","","","","","","","","","","","",""
"","sat_trial","","html-keyboard-response","124","196135","0.0-22.0-1.10","Eminem","eris","","","","","","","","","","","","","","","","","","","","","972","<div style='bottom:60%; right:20%; left:20%; position:fixed'><img src=https://realitybending.github.io/IllusionGameSelfAssociation/experiment/SelfAssociation/stimuli/circle.png height=20%></img></div><div  style='font-size:500%; position:fixed; text-align: center; top:50%; bottom:50%; right:20%; left:20%'>+</div><div style = ""font-size:300%; text-align: center; position:fixed; top:70%; right:20%; left:20%""><b>eris</div>","i","","","","","","","circle","11","mismatch","mismatch","true","","Friend","1","","","","","","","","","","",""
"","sat_feedback","","html-keyboard-response","125","196636","0.0-22.0-2.10","Eminem","eris","","","","","","","","","","","","","","","","","","","","","null","<p style = 'font-size: 300%; color:green'>Correct!</p>","null","","","","","","","","","","","","","","","","","","","","","","","","",""
"","sat_fixationcross","","html-keyboard-response","126","197137","0.0-22.0-0.11","Eminem","eris","","","","","","","","","","","","","","","","","","","","","null","<div  style='font-size:500%; position:fixed; text-align: center; top:50%; bottom:50%; right:20%; left:20%'>+</div>","null","","","","","","500","","","","","","","","","","","","","","","","","","",""
"","sat_trial","","html-keyboard-response","127","197864","0.0-22.0-1.11","Eminem","eris","","","","","","","","","","","","","","","","","","","","","726","<div style='bottom:60%; right:20%; left:20%; position:fixed'><img src=https://realitybending.github.io/IllusionGameSelfAssociation/experiment/SelfAssociation/stimuli/circle.png height=20%></img></div><div  style='font-size:500%; position:fixed; text-align: center; top:50%; bottom:50%; right:20%; left:20%'>+</div><div style = ""font-size:300%; text-align: center; position:fixed; top:70%; right:20%; left:20%""><b>You</div>","i","","","","","","","circle","12","mismatch","mismatch","true","","Self","1","","","","","","","","","","",""
"","sat_feedback","","html-keyboard-response","128","198365","0.0-22.0-2.11","Eminem","eris","","","","","","","","","","","","","","","","","","","","","null","<p style = 'font-size: 300%; color:green'>Correct!</p>","null","","","","","","","","","","","","","","","","","","","","","","","","",""
"","sat_fixationcross","","html-keyboard-response","129","198868","0.0-22.0-0.12","Eminem","eris","","","","","","","","","","","","","","","","","","","","","null","<div  style='font-size:500%; position:fixed; text-align: center; top:50%; bottom:50%; right:20%; left:20%'>+</div>","null","","","","","","500","","","","","","","","","","","","","","","","","","",""
"","sat_trial","","html-keyboard-response","130","199849","0.0-22.0-1.12","Eminem","eris","","","","","","","","","","","","","","","","","","","","","981","<div style='bottom:60%; right:20%; left:20%; position:fixed'><img src=https://realitybending.github.io/IllusionGameSelfAssociation/experiment/SelfAssociation/stimuli/triangle.png height=20%></img></div><div  style='font-size:500%; position:fixed; text-align: center; top:50%; bottom:50%; right:20%; left:20%'>+</div><div style = ""font-size:300%; text-align: center; position:fixed; top:70%; right:20%; left:20%""><b>eris</div>","e","","","","","","","triangle","13","match","match","true","","Friend","1","","","","","","","","","","",""
"","sat_feedback","","html-keyboard-response","131","200350","0.0-22.0-2.12","Eminem","eris","","","","","","","","","","","","","","","","","","","","","null","<p style = 'font-size: 300%; color:green'>Correct!</p>","null","","","","","","","","","","","","","","","","","","","","","","","","",""
"","sat_fixationcross","","html-keyboard-response","132","200852","0.0-22.0-0.13","Eminem","eris","","","","","","","","","","","","","","","","","","","","","null","<div  style='font-size:500%; position:fixed; text-align: center; top:50%; bottom:50%; right:20%; left:20%'>+</div>","null","","","","","","500","","","","","","","","","","","","","","","","","","",""
"","sat_trial","","html-keyboard-response","133","201628","0.0-22.0-1.13","Eminem","eris","","","","","","","","","","","","","","","","","","","","","775","<div style='bottom:60%; right:20%; left:20%; position:fixed'><img src=https://realitybending.github.io/IllusionGameSelfAssociation/experiment/SelfAssociation/stimuli/square.png height=20%></img></div><div  style='font-size:500%; position:fixed; text-align: center; top:50%; bottom:50%; right:20%; left:20%'>+</div><div style = ""font-size:300%; text-align: center; position:fixed; top:70%; right:20%; left:20%""><b>You</div>","e","","","","","","","square","14","match","match","true","","Self","1","","","","","","","","","","",""
"","sat_feedback","","html-keyboard-response","134","202129","0.0-22.0-2.13","Eminem","eris","","","","","","","","","","","","","","","","","","","","","null","<p style = 'font-size: 300%; color:green'>Correct!</p>","null","","","","","","","","","","","","","","","","","","","","","","","","",""
"","sat_fixationcross","","html-keyboard-response","135","202631","0.0-22.0-0.14","Eminem","eris","","","","","","","","","","","","","","","","","","","","","null","<div  style='font-size:500%; position:fixed; text-align: center; top:50%; bottom:50%; right:20%; left:20%'>+</div>","null","","","","","","500","","","","","","","","","","","","","","","","","","",""
"","sat_trial","","html-keyboard-response","136","203984","0.0-22.0-1.14","Eminem","eris","","","","","","","","","","","","","","","","","","","","","1353","<div style='bottom:60%; right:20%; left:20%; position:fixed'><img src=https://realitybending.github.io/IllusionGameSelfAssociation/experiment/SelfAssociation/stimuli/square.png height=20%></img></div><div  style='font-size:500%; position:fixed; text-align: center; top:50%; bottom:50%; right:20%; left:20%'>+</div><div style = ""font-size:300%; text-align: center; position:fixed; top:70%; right:20%; left:20%""><b>Eminem</div>","i","","","","","","","square","15","mismatch","mismatch","true","","Stranger","1","","","","","","","","","","",""
"","sat_feedback","","html-keyboard-response","137","204486","0.0-22.0-2.14","Eminem","eris","","","","","","","","","","","","","","","","","","","","","null","<p style = 'font-size: 300%; color:green'>Correct!</p>","null","","","","","","","","","","","","","","","","","","","","","","","","",""
"","sat_fixationcross","","html-keyboard-response","138","204988","0.0-22.0-0.15","Eminem","eris","","","","","","","","","","","","","","","","","","","","","null","<div  style='font-size:500%; position:fixed; text-align: center; top:50%; bottom:50%; right:20%; left:20%'>+</div>","null","","","","","","500","","","","","","","","","","","","","","","","","","",""
"","sat_trial","","html-keyboard-response","139","205909","0.0-22.0-1.15","Eminem","eris","","","","","","","","","","","","","","","","","","","","","920","<div style='bottom:60%; right:20%; left:20%; position:fixed'><img src=https://realitybending.github.io/IllusionGameSelfAssociation/experiment/SelfAssociation/stimuli/square.png height=20%></img></div><div  style='font-size:500%; position:fixed; text-align: center; top:50%; bottom:50%; right:20%; left:20%'>+</div><div style = ""font-size:300%; text-align: center; position:fixed; top:70%; right:20%; left:20%""><b>Eminem</div>","i","","","","","","","square","16","mismatch","mismatch","true","","Stranger","1","","","","","","","","","","",""
"","sat_feedback","","html-keyboard-response","140","206410","0.0-22.0-2.15","Eminem","eris","","","","","","","","","","","","","","","","","","","","","null","<p style = 'font-size: 300%; color:green'>Correct!</p>","null","","","","","","","","","","","","","","","","","","","","","","","","",""
"","sat_fixationcross","","html-keyboard-response","141","206911","0.0-22.0-0.16","Eminem","eris","","","","","","","","","","","","","","","","","","","","","null","<div  style='font-size:500%; position:fixed; text-align: center; top:50%; bottom:50%; right:20%; left:20%'>+</div>","null","","","","","","500","","","","","","","","","","","","","","","","","","",""
"","sat_trial","","html-keyboard-response","142","207818","0.0-22.0-1.16","Eminem","eris","","","","","","","","","","","","","","","","","","","","","907","<div style='bottom:60%; right:20%; left:20%; position:fixed'><img src=https://realitybending.github.io/IllusionGameSelfAssociation/experiment/SelfAssociation/stimuli/circle.png height=20%></img></div><div  style='font-size:500%; position:fixed; text-align: center; top:50%; bottom:50%; right:20%; left:20%'>+</div><div style = ""font-size:300%; text-align: center; position:fixed; top:70%; right:20%; left:20%""><b>eris</div>","i","","","","","","","circle","17","mismatch","mismatch","true","","Friend","1","","","","","","","","","","",""
"","sat_feedback","","html-keyboard-response","143","208319","0.0-22.0-2.16","Eminem","eris","","","","","","","","","","","","","","","","","","","","","null","<p style = 'font-size: 300%; color:green'>Correct!</p>","null","","","","","","","","","","","","","","","","","","","","","","","","",""
"","sat_fixationcross","","html-keyboard-response","144","208821","0.0-22.0-0.17","Eminem","eris","","","","","","","","","","","","","","","","","","","","","null","<div  style='font-size:500%; position:fixed; text-align: center; top:50%; bottom:50%; right:20%; left:20%'>+</div>","null","","","","","","500","","","","","","","","","","","","","","","","","","",""
"","sat_trial","","html-keyboard-response","145","209472","0.0-22.0-1.17","Eminem","eris","","","","","","","","","","","","","","","","","","","","","651","<div style='bottom:60%; right:20%; left:20%; position:fixed'><img src=https://realitybending.github.io/IllusionGameSelfAssociation/experiment/SelfAssociation/stimuli/circle.png height=20%></img></div><div  style='font-size:500%; position:fixed; text-align: center; top:50%; bottom:50%; right:20%; left:20%'>+</div><div style = ""font-size:300%; text-align: center; position:fixed; top:70%; right:20%; left:20%""><b>eris</div>","i","","","","","","","circle","18","mismatch","mismatch","true","","Friend","1","","","","","","","","","","",""
"","sat_feedback","","html-keyboard-response","146","209974","0.0-22.0-2.17","Eminem","eris","","","","","","","","","","","","","","","","","","","","","null","<p style = 'font-size: 300%; color:green'>Correct!</p>","null","","","","","","","","","","","","","","","","","","","","","","","","",""
"","sat_fixationcross","","html-keyboard-response","147","210476","0.0-22.0-0.18","Eminem","eris","","","","","","","","","","","","","","","","","","","","","null","<div  style='font-size:500%; position:fixed; text-align: center; top:50%; bottom:50%; right:20%; left:20%'>+</div>","null","","","","","","500","","","","","","","","","","","","","","","","","","",""
"","sat_trial","","html-keyboard-response","148","211538","0.0-22.0-1.18","Eminem","eris","","","","","","","","","","","","","","","","","","","","","1061","<div style='bottom:60%; right:20%; left:20%; position:fixed'><img src=https://realitybending.github.io/IllusionGameSelfAssociation/experiment/SelfAssociation/stimuli/triangle.png height=20%></img></div><div  style='font-size:500%; position:fixed; text-align: center; top:50%; bottom:50%; right:20%; left:20%'>+</div><div style = ""font-size:300%; text-align: center; position:fixed; top:70%; right:20%; left:20%""><b>Eminem</div>","i","","","","","","","triangle","19","mismatch","mismatch","true","","Stranger","1","","","","","","","","","","",""
"","sat_feedback","","html-keyboard-response","149","212039","0.0-22.0-2.18","Eminem","eris","","","","","","","","","","","","","","","","","","","","","null","<p style = 'font-size: 300%; color:green'>Correct!</p>","null","","","","","","","","","","","","","","","","","","","","","","","","",""
"","sat_fixationcross","","html-keyboard-response","150","212541","0.0-22.0-0.19","Eminem","eris","","","","","","","","","","","","","","","","","","","","","null","<div  style='font-size:500%; position:fixed; text-align: center; top:50%; bottom:50%; right:20%; left:20%'>+</div>","null","","","","","","500","","","","","","","","","","","","","","","","","","",""
"","sat_trial","","html-keyboard-response","151","213141","0.0-22.0-1.19","Eminem","eris","","","","","","","","","","","","","","","","","","","","","599","<div style='bottom:60%; right:20%; left:20%; position:fixed'><img src=https://realitybending.github.io/IllusionGameSelfAssociation/experiment/SelfAssociation/stimuli/square.png height=20%></img></div><div  style='font-size:500%; position:fixed; text-align: center; top:50%; bottom:50%; right:20%; left:20%'>+</div><div style = ""font-size:300%; text-align: center; position:fixed; top:70%; right:20%; left:20%""><b>Eminem</div>","i","","","","","","","square","20","mismatch","mismatch","true","","Stranger","1","","","","","","","","","","",""
"","sat_feedback","","html-keyboard-response","152","213643","0.0-22.0-2.19","Eminem","eris","","","","","","","","","","","","","","","","","","","","","null","<p style = 'font-size: 300%; color:green'>Correct!</p>","null","","","","","","","","","","","","","","","","","","","","","","","","",""
"","sat_fixationcross","","html-keyboard-response","153","214144","0.0-22.0-0.20","Eminem","eris","","","","","","","","","","","","","","","","","","","","","null","<div  style='font-size:500%; position:fixed; text-align: center; top:50%; bottom:50%; right:20%; left:20%'>+</div>","null","","","","","","500","","","","","","","","","","","","","","","","","","",""
"","sat_trial","","html-keyboard-response","154","214715","0.0-22.0-1.20","Eminem","eris","","","","","","","","","","","","","","","","","","","","","570","<div style='bottom:60%; right:20%; left:20%; position:fixed'><img src=https://realitybending.github.io/IllusionGameSelfAssociation/experiment/SelfAssociation/stimuli/square.png height=20%></img></div><div  style='font-size:500%; position:fixed; text-align: center; top:50%; bottom:50%; right:20%; left:20%'>+</div><div style = ""font-size:300%; text-align: center; position:fixed; top:70%; right:20%; left:20%""><b>You</div>","e","","","","","","","square","21","match","match","true","","Self","1","","","","","","","","","","",""
"","sat_feedback","","html-keyboard-response","155","215216","0.0-22.0-2.20","Eminem","eris","","","","","","","","","","","","","","","","","","","","","null","<p style = 'font-size: 300%; color:green'>Correct!</p>","null","","","","","","","","","","","","","","","","","","","","","","","","",""
"","sat_fixationcross","","html-keyboard-response","156","215717","0.0-22.0-0.21","Eminem","eris","","","","","","","","","","","","","","","","","","","","","null","<div  style='font-size:500%; position:fixed; text-align: center; top:50%; bottom:50%; right:20%; left:20%'>+</div>","null","","","","","","500","","","","","","","","","","","","","","","","","","",""
"","sat_trial","","html-keyboard-response","157","216700","0.0-22.0-1.21","Eminem","eris","","","","","","","","","","","","","","","","","","","","","982","<div style='bottom:60%; right:20%; left:20%; position:fixed'><img src=https://realitybending.github.io/IllusionGameSelfAssociation/experiment/SelfAssociation/stimuli/triangle.png height=20%></img></div><div  style='font-size:500%; position:fixed; text-align: center; top:50%; bottom:50%; right:20%; left:20%'>+</div><div style = ""font-size:300%; text-align: center; position:fixed; top:70%; right:20%; left:20%""><b>You</div>","i","","","","","","","triangle","22","mismatch","mismatch","true","","Self","1","","","","","","","","","","",""
"","sat_feedback","","html-keyboard-response","158","217202","0.0-22.0-2.21","Eminem","eris","","","","","","","","","","","","","","","","","","","","","null","<p style = 'font-size: 300%; color:green'>Correct!</p>","null","","","","","","","","","","","","","","","","","","","","","","","","",""
"","sat_fixationcross","","html-keyboard-response","159","217704","0.0-22.0-0.22","Eminem","eris","","","","","","","","","","","","","","","","","","","","","null","<div  style='font-size:500%; position:fixed; text-align: center; top:50%; bottom:50%; right:20%; left:20%'>+</div>","null","","","","","","500","","","","","","","","","","","","","","","","","","",""
"","sat_trial","","html-keyboard-response","160","218850","0.0-22.0-1.22","Eminem","eris","","","","","","","","","","","","","","","","","","","","","1146","<div style='bottom:60%; right:20%; left:20%; position:fixed'><img src=https://realitybending.github.io/IllusionGameSelfAssociation/experiment/SelfAssociation/stimuli/circle.png height=20%></img></div><div  style='font-size:500%; position:fixed; text-align: center; top:50%; bottom:50%; right:20%; left:20%'>+</div><div style = ""font-size:300%; text-align: center; position:fixed; top:70%; right:20%; left:20%""><b>eris</div>","i","","","","","","","circle","23","mismatch","mismatch","true","","Friend","1","","","","","","","","","","",""
"","sat_feedback","","html-keyboard-response","161","219351","0.0-22.0-2.22","Eminem","eris","","","","","","","","","","","","","","","","","","","","","null","<p style = 'font-size: 300%; color:green'>Correct!</p>","null","","","","","","","","","","","","","","","","","","","","","","","","",""
"","sat_fixationcross","","html-keyboard-response","162","219853","0.0-22.0-0.23","Eminem","eris","","","","","","","","","","","","","","","","","","","","","null","<div  style='font-size:500%; position:fixed; text-align: center; top:50%; bottom:50%; right:20%; left:20%'>+</div>","null","","","","","","500","","","","","","","","","","","","","","","","","","",""
"","sat_trial","","html-keyboard-response","163","220579","0.0-22.0-1.23","Eminem","eris","","","","","","","","","","","","","","","","","","","","","725","<div style='bottom:60%; right:20%; left:20%; position:fixed'><img src=https://realitybending.github.io/IllusionGameSelfAssociation/experiment/SelfAssociation/stimuli/square.png height=20%></img></div><div  style='font-size:500%; position:fixed; text-align: center; top:50%; bottom:50%; right:20%; left:20%'>+</div><div style = ""font-size:300%; text-align: center; position:fixed; top:70%; right:20%; left:20%""><b>eris</div>","i","","","","","","","square","24","mismatch","mismatch","true","","Friend","1","","","","","","","","","","",""
"","sat_feedback","","html-keyboard-response","164","221080","0.0-22.0-2.23","Eminem","eris","","","","","","","","","","","","","","","","","","","","","null","<p style = 'font-size: 300%; color:green'>Correct!</p>","null","","","","","","","","","","","","","","","","","","","","","","","","",""
"","sat_fixationcross","","html-keyboard-response","165","221581","0.0-22.0-0.24","Eminem","eris","","","","","","","","","","","","","","","","","","","","","null","<div  style='font-size:500%; position:fixed; text-align: center; top:50%; bottom:50%; right:20%; left:20%'>+</div>","null","","","","","","500","","","","","","","","","","","","","","","","","","",""
"","sat_trial","","html-keyboard-response","166","222183","0.0-22.0-1.24","Eminem","eris","","","","","","","","","","","","","","","","","","","","","601","<div style='bottom:60%; right:20%; left:20%; position:fixed'><img src=https://realitybending.github.io/IllusionGameSelfAssociation/experiment/SelfAssociation/stimuli/triangle.png height=20%></img></div><div  style='font-size:500%; position:fixed; text-align: center; top:50%; bottom:50%; right:20%; left:20%'>+</div><div style = ""font-size:300%; text-align: center; position:fixed; top:70%; right:20%; left:20%""><b>eris</div>","e","","","","","","","triangle","25","match","match","true","","Friend","1","","","","","","","","","","",""
"","sat_feedback","","html-keyboard-response","167","222683","0.0-22.0-2.24","Eminem","eris","","","","","","","","","","","","","","","","","","","","","null","<p style = 'font-size: 300%; color:green'>Correct!</p>","null","","","","","","","","","","","","","","","","","","","","","","","","",""
"","sat_fixationcross","","html-keyboard-response","168","223184","0.0-22.0-0.25","Eminem","eris","","","","","","","","","","","","","","","","","","","","","null","<div  style='font-size:500%; position:fixed; text-align: center; top:50%; bottom:50%; right:20%; left:20%'>+</div>","null","","","","","","500","","","","","","","","","","","","","","","","","","",""
"","sat_trial","","html-keyboard-response","169","224068","0.0-22.0-1.25","Eminem","eris","","","","","","","","","","","","","","","","","","","","","883","<div style='bottom:60%; right:20%; left:20%; position:fixed'><img src=https://realitybending.github.io/IllusionGameSelfAssociation/experiment/SelfAssociation/stimuli/circle.png height=20%></img></div><div  style='font-size:500%; position:fixed; text-align: center; top:50%; bottom:50%; right:20%; left:20%'>+</div><div style = ""font-size:300%; text-align: center; position:fixed; top:70%; right:20%; left:20%""><b>You</div>","i","","","","","","","circle","26","mismatch","mismatch","true","","Self","1","","","","","","","","","","",""
"","sat_feedback","","html-keyboard-response","170","224569","0.0-22.0-2.25","Eminem","eris","","","","","","","","","","","","","","","","","","","","","null","<p style = 'font-size: 300%; color:green'>Correct!</p>","null","","","","","","","","","","","","","","","","","","","","","","","","",""
"","sat_fixationcross","","html-keyboard-response","171","225071","0.0-22.0-0.26","Eminem","eris","","","","","","","","","","","","","","","","","","","","","null","<div  style='font-size:500%; position:fixed; text-align: center; top:50%; bottom:50%; right:20%; left:20%'>+</div>","null","","","","","","500","","","","","","","","","","","","","","","","","","",""
"","sat_trial","","html-keyboard-response","172","226123","0.0-22.0-1.26","Eminem","eris","","","","","","","","","","","","","","","","","","","","","1052","<div style='bottom:60%; right:20%; left:20%; position:fixed'><img src=https://realitybending.github.io/IllusionGameSelfAssociation/experiment/SelfAssociation/stimuli/triangle.png height=20%></img></div><div  style='font-size:500%; position:fixed; text-align: center; top:50%; bottom:50%; right:20%; left:20%'>+</div><div style = ""font-size:300%; text-align: center; position:fixed; top:70%; right:20%; left:20%""><b>You</div>","i","","","","","","","triangle","27","mismatch","mismatch","true","","Self","1","","","","","","","","","","",""
"","sat_feedback","","html-keyboard-response","173","226625","0.0-22.0-2.26","Eminem","eris","","","","","","","","","","","","","","","","","","","","","null","<p style = 'font-size: 300%; color:green'>Correct!</p>","null","","","","","","","","","","","","","","","","","","","","","","","","",""
"","sat_fixationcross","","html-keyboard-response","174","227126","0.0-22.0-0.27","Eminem","eris","","","","","","","","","","","","","","","","","","","","","null","<div  style='font-size:500%; position:fixed; text-align: center; top:50%; bottom:50%; right:20%; left:20%'>+</div>","null","","","","","","500","","","","","","","","","","","","","","","","","","",""
"","sat_trial","","html-keyboard-response","175","227732","0.0-22.0-1.27","Eminem","eris","","","","","","","","","","","","","","","","","","","","","605","<div style='bottom:60%; right:20%; left:20%; position:fixed'><img src=https://realitybending.github.io/IllusionGameSelfAssociation/experiment/SelfAssociation/stimuli/square.png height=20%></img></div><div  style='font-size:500%; position:fixed; text-align: center; top:50%; bottom:50%; right:20%; left:20%'>+</div><div style = ""font-size:300%; text-align: center; position:fixed; top:70%; right:20%; left:20%""><b>You</div>","e","","","","","","","square","28","match","match","true","","Self","1","","","","","","","","","","",""
"","sat_feedback","","html-keyboard-response","176","228233","0.0-22.0-2.27","Eminem","eris","","","","","","","","","","","","","","","","","","","","","null","<p style = 'font-size: 300%; color:green'>Correct!</p>","null","","","","","","","","","","","","","","","","","","","","","","","","",""
"","sat_fixationcross","","html-keyboard-response","177","228736","0.0-22.0-0.28","Eminem","eris","","","","","","","","","","","","","","","","","","","","","null","<div  style='font-size:500%; position:fixed; text-align: center; top:50%; bottom:50%; right:20%; left:20%'>+</div>","null","","","","","","500","","","","","","","","","","","","","","","","","","",""
"","sat_trial","","html-keyboard-response","178","229481","0.0-22.0-1.28","Eminem","eris","","","","","","","","","","","","","","","","","","","","","745","<div style='bottom:60%; right:20%; left:20%; position:fixed'><img src=https://realitybending.github.io/IllusionGameSelfAssociation/experiment/SelfAssociation/stimuli/square.png height=20%></img></div><div  style='font-size:500%; position:fixed; text-align: center; top:50%; bottom:50%; right:20%; left:20%'>+</div><div style = ""font-size:300%; text-align: center; position:fixed; top:70%; right:20%; left:20%""><b>You</div>","e","","","","","","","square","29","match","match","true","","Self","1","","","","","","","","","","",""
"","sat_feedback","","html-keyboard-response","179","229983","0.0-22.0-2.28","Eminem","eris","","","","","","","","","","","","","","","","","","","","","null","<p style = 'font-size: 300%; color:green'>Correct!</p>","null","","","","","","","","","","","","","","","","","","","","","","","","",""
"","sat_fixationcross","","html-keyboard-response","180","230484","0.0-22.0-0.29","Eminem","eris","","","","","","","","","","","","","","","","","","","","","null","<div  style='font-size:500%; position:fixed; text-align: center; top:50%; bottom:50%; right:20%; left:20%'>+</div>","null","","","","","","500","","","","","","","","","","","","","","","","","","",""
"","sat_trial","","html-keyboard-response","181","231180","0.0-22.0-1.29","Eminem","eris","","","","","","","","","","","","","","","","","","","","","695","<div style='bottom:60%; right:20%; left:20%; position:fixed'><img src=https://realitybending.github.io/IllusionGameSelfAssociation/experiment/SelfAssociation/stimuli/circle.png height=20%></img></div><div  style='font-size:500%; position:fixed; text-align: center; top:50%; bottom:50%; right:20%; left:20%'>+</div><div style = ""font-size:300%; text-align: center; position:fixed; top:70%; right:20%; left:20%""><b>You</div>","i","","","","","","","circle","30","mismatch","mismatch","true","","Self","1","","","","","","","","","","",""
"","sat_feedback","","html-keyboard-response","182","231680","0.0-22.0-2.29","Eminem","eris","","","","","","","","","","","","","","","","","","","","","null","<p style = 'font-size: 300%; color:green'>Correct!</p>","null","","","","","","","","","","","","","","","","","","","","","","","","",""
"","sat_fixationcross","","html-keyboard-response","183","232181","0.0-22.0-0.30","Eminem","eris","","","","","","","","","","","","","","","","","","","","","null","<div  style='font-size:500%; position:fixed; text-align: center; top:50%; bottom:50%; right:20%; left:20%'>+</div>","null","","","","","","500","","","","","","","","","","","","","","","","","","",""
"","sat_trial","","html-keyboard-response","184","233235","0.0-22.0-1.30","Eminem","eris","","","","","","","","","","","","","","","","","","","","","1053","<div style='bottom:60%; right:20%; left:20%; position:fixed'><img src=https://realitybending.github.io/IllusionGameSelfAssociation/experiment/SelfAssociation/stimuli/triangle.png height=20%></img></div><div  style='font-size:500%; position:fixed; text-align: center; top:50%; bottom:50%; right:20%; left:20%'>+</div><div style = ""font-size:300%; text-align: center; position:fixed; top:70%; right:20%; left:20%""><b>Eminem</div>","e","","","","","","","triangle","31","match","mismatch","false","","Stranger","1","","","","","","","","","","",""
"","sat_feedback","","html-keyboard-response","185","233736","0.0-22.0-2.30","Eminem","eris","","","","","","","","","","","","","","","","","","","","","null","<p style = 'font-size: 300%; color:red'>Incorrect!</p>","null","","","","","","","","","","","","","","","","","","","","","","","","",""
"","sat_fixationcross","","html-keyboard-response","186","234238","0.0-22.0-0.31","Eminem","eris","","","","","","","","","","","","","","","","","","","","","null","<div  style='font-size:500%; position:fixed; text-align: center; top:50%; bottom:50%; right:20%; left:20%'>+</div>","null","","","","","","500","","","","","","","","","","","","","","","","","","",""
"","sat_trial","","html-keyboard-response","187","235225","0.0-22.0-1.31","Eminem","eris","","","","","","","","","","","","","","","","","","","","","987","<div style='bottom:60%; right:20%; left:20%; position:fixed'><img src=https://realitybending.github.io/IllusionGameSelfAssociation/experiment/SelfAssociation/stimuli/square.png height=20%></img></div><div  style='font-size:500%; position:fixed; text-align: center; top:50%; bottom:50%; right:20%; left:20%'>+</div><div style = ""font-size:300%; text-align: center; position:fixed; top:70%; right:20%; left:20%""><b>Eminem</div>","i","","","","","","","square","32","mismatch","mismatch","true","","Stranger","1","","","","","","","","","","",""
"","sat_feedback","","html-keyboard-response","188","235726","0.0-22.0-2.31","Eminem","eris","","","","","","","","","","","","","","","","","","","","","null","<p style = 'font-size: 300%; color:green'>Correct!</p>","null","","","","","","","","","","","","","","","","","","","","","","","","",""
"","sat_fixationcross","","html-keyboard-response","189","236228","0.0-22.0-0.32","Eminem","eris","","","","","","","","","","","","","","","","","","","","","null","<div  style='font-size:500%; position:fixed; text-align: center; top:50%; bottom:50%; right:20%; left:20%'>+</div>","null","","","","","","500","","","","","","","","","","","","","","","","","","",""
"","sat_trial","","html-keyboard-response","190","236974","0.0-22.0-1.32","Eminem","eris","","","","","","","","","","","","","","","","","","","","","746","<div style='bottom:60%; right:20%; left:20%; position:fixed'><img src=https://realitybending.github.io/IllusionGameSelfAssociation/experiment/SelfAssociation/stimuli/circle.png height=20%></img></div><div  style='font-size:500%; position:fixed; text-align: center; top:50%; bottom:50%; right:20%; left:20%'>+</div><div style = ""font-size:300%; text-align: center; position:fixed; top:70%; right:20%; left:20%""><b>eris</div>","i","","","","","","","circle","33","mismatch","mismatch","true","","Friend","1","","","","","","","","","","",""
"","sat_feedback","","html-keyboard-response","191","237474","0.0-22.0-2.32","Eminem","eris","","","","","","","","","","","","","","","","","","","","","null","<p style = 'font-size: 300%; color:green'>Correct!</p>","null","","","","","","","","","","","","","","","","","","","","","","","","",""
"","sat_fixationcross","","html-keyboard-response","192","237976","0.0-22.0-0.33","Eminem","eris","","","","","","","","","","","","","","","","","","","","","null","<div  style='font-size:500%; position:fixed; text-align: center; top:50%; bottom:50%; right:20%; left:20%'>+</div>","null","","","","","","500","","","","","","","","","","","","","","","","","","",""
"","sat_trial","","html-keyboard-response","193","239074","0.0-22.0-1.33","Eminem","eris","","","","","","","","","","","","","","","","","","","","","1098","<div style='bottom:60%; right:20%; left:20%; position:fixed'><img src=https://realitybending.github.io/IllusionGameSelfAssociation/experiment/SelfAssociation/stimuli/square.png height=20%></img></div><div  style='font-size:500%; position:fixed; text-align: center; top:50%; bottom:50%; right:20%; left:20%'>+</div><div style = ""font-size:300%; text-align: center; position:fixed; top:70%; right:20%; left:20%""><b>eris</div>","e","","","","","","","square","34","match","mismatch","false","","Friend","1","","","","","","","","","","",""
"","sat_feedback","","html-keyboard-response","194","239576","0.0-22.0-2.33","Eminem","eris","","","","","","","","","","","","","","","","","","","","","null","<p style = 'font-size: 300%; color:red'>Incorrect!</p>","null","","","","","","","","","","","","","","","","","","","","","","","","",""
"","sat_fixationcross","","html-keyboard-response","195","240076","0.0-22.0-0.34","Eminem","eris","","","","","","","","","","","","","","","","","","","","","null","<div  style='font-size:500%; position:fixed; text-align: center; top:50%; bottom:50%; right:20%; left:20%'>+</div>","null","","","","","","500","","","","","","","","","","","","","","","","","","",""
"","sat_trial","","html-keyboard-response","196","240818","0.0-22.0-1.34","Eminem","eris","","","","","","","","","","","","","","","","","","","","","741","<div style='bottom:60%; right:20%; left:20%; position:fixed'><img src=https://realitybending.github.io/IllusionGameSelfAssociation/experiment/SelfAssociation/stimuli/square.png height=20%></img></div><div  style='font-size:500%; position:fixed; text-align: center; top:50%; bottom:50%; right:20%; left:20%'>+</div><div style = ""font-size:300%; text-align: center; position:fixed; top:70%; right:20%; left:20%""><b>You</div>","e","","","","","","","square","35","match","match","true","","Self","1","","","","","","","","","","",""
"","sat_feedback","","html-keyboard-response","197","241319","0.0-22.0-2.34","Eminem","eris","","","","","","","","","","","","","","","","","","","","","null","<p style = 'font-size: 300%; color:green'>Correct!</p>","null","","","","","","","","","","","","","","","","","","","","","","","","",""
"","sat_fixationcross","","html-keyboard-response","198","241820","0.0-22.0-0.35","Eminem","eris","","","","","","","","","","","","","","","","","","","","","null","<div  style='font-size:500%; position:fixed; text-align: center; top:50%; bottom:50%; right:20%; left:20%'>+</div>","null","","","","","","500","","","","","","","","","","","","","","","","","","",""
"","sat_trial","","html-keyboard-response","199","242683","0.0-22.0-1.35","Eminem","eris","","","","","","","","","","","","","","","","","","","","","862","<div style='bottom:60%; right:20%; left:20%; position:fixed'><img src=https://realitybending.github.io/IllusionGameSelfAssociation/experiment/SelfAssociation/stimuli/triangle.png height=20%></img></div><div  style='font-size:500%; position:fixed; text-align: center; top:50%; bottom:50%; right:20%; left:20%'>+</div><div style = ""font-size:300%; text-align: center; position:fixed; top:70%; right:20%; left:20%""><b>You</div>","i","","","","","","","triangle","36","mismatch","mismatch","true","","Self","1","","","","","","","","","","",""
