"rt","stimulus","response","screen","trial_type","trial_index","time_elapsed","internal_node_id","label_stranger","label_friend","question_order","success","timeout","failed_images","failed_audio","failed_video","trial_duration","shape","trial_number","answer","answer_correct","correct","condition","label_condition","block_number"
"7444","<img src='https://u-paris.fr/wp-content/uploads/2022/03/Universite_Paris-Cite-logo.jpeg' width='300px' align='right'/><br><br><br><br><br><h1>Informed Consent</h1><p align='left'>In this study, you will be asked to complete [TODO].</p><p align='left'>Your participation in this research will be kept completely confidential. <b>Your responses are entirely anonymous</b>, and no IP address or any identifiers are collected.</p><p align='left'>Your participation contributes to scientific advancement. <b>By participating, you agree to follow the instructions and provide honest answers.</b> If you do not wish to participate this survey, simply close your browser.</p><p align='left'><br><sub><sup>If you have any questions about the project, please contact [TODO] This project has been reviewed and approved by the Ethics Comitee of the University of [TODO].</sup></sub></p>","0","consent","html-button-response","0","7449","0.0-0.0","Madonna","njn","","","","","","","","","","","","","","",""
"2835","","{""sex"":""Female""}","demographics_1","survey-multi-choice","1","10288","0.0-1.0","Madonna","njn","[0]","","","","","","","","","","","","","",""
"","","","","preload","2","10435","0.0-2.0","Madonna","njn","","true","false","[]","[]","[]","","","","","","","","",""
"1031","<h1>Shape-Label Association Game</h1><p>In this task, you will be shown some <b>shapes</b> that will be assigned to a <b>label</b> (You, Your Best Friend and a Stranger).</p><p>To personalize this game to your own experience, you will first select who you want the friend and the stranger to be.</p>","0","SAT_instructions_general","html-button-response","3","11467","0.0-3.0","Madonna","njn","","","","","","","","","","","","","","",""
"3315","","{""label_stranger"":""Madonna""}","SAT_strangerlabel","survey-multi-choice","4","14785","0.0-4.0","Madonna","njn","[0]","","","","","","","","","","","","","",""
"40870","","{""label_friend"":""njn""}","SAT_friendlabel","survey-text","5","55661","0.0-5.0","Madonna","njn","","","","","","","","","","","","","","",""
"1663","<h1>Practice</h1><p>Each label (i.e., You, Best Friend, Stranger) will be assigned to a specific shape (circle, square or triangle)</p><p>During the practice phase, you will be presented with one of the shapes above a fixation cross, together with the three labels below the fixation cross.</p><p>Your task is to select the label that corresponds with the presented shape as quickly and accurately as possible</p><p>If the correct label is on the <b>left</b>, press <b>'v'</b>.</p><p>If the correct label is in the <b>middle</b>, press <b>'b'</b>.</p><p>If the correct label is on the <b>right</b>, press <b>'n'</b>.</p><br>","0","SAT_instructions_practice","html-button-response","6","57327","0.0-6.0","Madonna","njn","","","","","","","","","","","","","","",""
"1555","<h1>Instructions</h1><div id ='align-middle'><b>You</b> will be represented by a <b>circle</b>  <img src= https://realitybending.github.io/IllusionGameSelfAssociation/experiment/SelfAssociation/stimuli/circle.png height=40></img></div><br><div id ='align-middle'><b>Madonna</b> will be represented by a <b>triangle</b>  <img src= https://realitybending.github.io/IllusionGameSelfAssociation/experiment/SelfAssociation/stimuli/triangle.png height=40></img></div><br><div id = 'align-middle'><b>njn</b> will be represented by a <b>square</b>  <img src= https://realitybending.github.io/IllusionGameSelfAssociation/experiment/SelfAssociation/stimuli/square.png height=40></img></div><br>","0","SAT_assignmentscreen","html-button-response","7","58884","0.0-7.0","Madonna","njn","","","","","","","","","","","","","","",""
"null","<div  style='font-size:500%; position:fixed; text-align: center; top:50%; bottom:50%; right:20%; left:20%'>+</div>","null","sat_fixationcross","html-keyboard-response","8","59404","0.0-8.0-0.0","Madonna","njn","","","","","","","500","","","","","","","",""
"443","<div style='bottom:60%; right:20%; left:20%; position:fixed'><img src=https://realitybending.github.io/IllusionGameSelfAssociation/experiment/SelfAssociation/stimuli/circle.png height=20%></img></div><div  style='font-size:500%; position:fixed; text-align: center; top:50%; bottom:50%; right:20%; left:20%'>+</div><div style = ""font-size:300%; text-align: center; position:fixed; top:70%; left:20%""><b>You</b></br></br></br></br>v</div><div style = ""font-size:300%; text-align: center; position:fixed; top:70%; right:20%; left:20%""><b>Madonna</b></br></br></br></br>b</div><div style = ""font-size:300%; text-align: center; position:fixed; top:70%; right:20%""><b>njn</b></br></br></br></br>n</div>","b","sat_practicetrial","html-keyboard-response","9","59848","0.0-8.0-1.0","Madonna","njn","","","","","","","","circle","1","Madonna","Madonna","true","Stranger","",""
"null","<p style = 'font-size: 300%; color:green'>Correct!</p>","null","sat_feedback","html-keyboard-response","10","60350","0.0-8.0-2.0","Madonna","njn","","","","","","","","","","","","","","",""
"null","<div  style='font-size:500%; position:fixed; text-align: center; top:50%; bottom:50%; right:20%; left:20%'>+</div>","null","sat_fixationcross","html-keyboard-response","11","60877","0.0-8.0-0.1","Madonna","njn","","","","","","","500","","","","","","","",""
"269","<div style='bottom:60%; right:20%; left:20%; position:fixed'><img src=https://realitybending.github.io/IllusionGameSelfAssociation/experiment/SelfAssociation/stimuli/triangle.png height=20%></img></div><div  style='font-size:500%; position:fixed; text-align: center; top:50%; bottom:50%; right:20%; left:20%'>+</div><div style = ""font-size:300%; text-align: center; position:fixed; top:70%; left:20%""><b>You</b></br></br></br></br>v</div><div style = ""font-size:300%; text-align: center; position:fixed; top:70%; right:20%; left:20%""><b>Madonna</b></br></br></br></br>b</div><div style = ""font-size:300%; text-align: center; position:fixed; top:70%; right:20%""><b>njn</b></br></br></br></br>n</div>","n","sat_practicetrial","html-keyboard-response","12","61147","0.0-8.0-1.1","Madonna","njn","","","","","","","","triangle","2","njn","You","false","Self","",""
"null","<p style = 'font-size: 300%; color:red'>Incorrect!</p>","null","sat_feedback","html-keyboard-response","13","61653","0.0-8.0-2.1","Madonna","njn","","","","","","","","","","","","","","",""
"null","<div  style='font-size:500%; position:fixed; text-align: center; top:50%; bottom:50%; right:20%; left:20%'>+</div>","null","sat_fixationcross","html-keyboard-response","14","62155","0.0-8.0-0.2","Madonna","njn","","","","","","","500","","","","","","","",""
"267","<div style='bottom:60%; right:20%; left:20%; position:fixed'><img src=https://realitybending.github.io/IllusionGameSelfAssociation/experiment/SelfAssociation/stimuli/square.png height=20%></img></div><div  style='font-size:500%; position:fixed; text-align: center; top:50%; bottom:50%; right:20%; left:20%'>+</div><div style = ""font-size:300%; text-align: center; position:fixed; top:70%; left:20%""><b>You</b></br></br></br></br>v</div><div style = ""font-size:300%; text-align: center; position:fixed; top:70%; right:20%; left:20%""><b>Madonna</b></br></br></br></br>b</div><div style = ""font-size:300%; text-align: center; position:fixed; top:70%; right:20%""><b>njn</b></br></br></br></br>n</div>","v","sat_practicetrial","html-keyboard-response","15","62424","0.0-8.0-1.2","Madonna","njn","","","","","","","","square","3","You","njn","false","Friend","",""
"null","<p style = 'font-size: 300%; color:red'>Incorrect!</p>","null","sat_feedback","html-keyboard-response","16","62926","0.0-8.0-2.2","Madonna","njn","","","","","","","","","","","","","","",""
"null","<div  style='font-size:500%; position:fixed; text-align: center; top:50%; bottom:50%; right:20%; left:20%'>+</div>","null","sat_fixationcross","html-keyboard-response","17","63444","0.0-8.0-0.3","Madonna","njn","","","","","","","500","","","","","","","",""
"210","<div style='bottom:60%; right:20%; left:20%; position:fixed'><img src=https://realitybending.github.io/IllusionGameSelfAssociation/experiment/SelfAssociation/stimuli/circle.png height=20%></img></div><div  style='font-size:500%; position:fixed; text-align: center; top:50%; bottom:50%; right:20%; left:20%'>+</div><div style = ""font-size:300%; text-align: center; position:fixed; top:70%; left:20%""><b>You</b></br></br></br></br>v</div><div style = ""font-size:300%; text-align: center; position:fixed; top:70%; right:20%; left:20%""><b>Madonna</b></br></br></br></br>b</div><div style = ""font-size:300%; text-align: center; position:fixed; top:70%; right:20%""><b>njn</b></br></br></br></br>n</div>","b","sat_practicetrial","html-keyboard-response","18","63655","0.0-8.0-1.3","Madonna","njn","","","","","","","","circle","4","Madonna","Madonna","true","Stranger","",""
"null","<p style = 'font-size: 300%; color:green'>Correct!</p>","null","sat_feedback","html-keyboard-response","19","64163","0.0-8.0-2.3","Madonna","njn","","","","","","","","","","","","","","",""
"null","<div  style='font-size:500%; position:fixed; text-align: center; top:50%; bottom:50%; right:20%; left:20%'>+</div>","null","sat_fixationcross","html-keyboard-response","20","64685","0.0-8.0-0.4","Madonna","njn","","","","","","","500","","","","","","","",""
"223","<div style='bottom:60%; right:20%; left:20%; position:fixed'><img src=https://realitybending.github.io/IllusionGameSelfAssociation/experiment/SelfAssociation/stimuli/square.png height=20%></img></div><div  style='font-size:500%; position:fixed; text-align: center; top:50%; bottom:50%; right:20%; left:20%'>+</div><div style = ""font-size:300%; text-align: center; position:fixed; top:70%; left:20%""><b>You</b></br></br></br></br>v</div><div style = ""font-size:300%; text-align: center; position:fixed; top:70%; right:20%; left:20%""><b>Madonna</b></br></br></br></br>b</div><div style = ""font-size:300%; text-align: center; position:fixed; top:70%; right:20%""><b>njn</b></br></br></br></br>n</div>","b","sat_practicetrial","html-keyboard-response","21","64909","0.0-8.0-1.4","Madonna","njn","","","","","","","","square","5","Madonna","njn","false","Friend","",""
"null","<p style = 'font-size: 300%; color:red'>Incorrect!</p>","null","sat_feedback","html-keyboard-response","22","65418","0.0-8.0-2.4","Madonna","njn","","","","","","","","","","","","","","",""
"null","<div  style='font-size:500%; position:fixed; text-align: center; top:50%; bottom:50%; right:20%; left:20%'>+</div>","null","sat_fixationcross","html-keyboard-response","23","65922","0.0-8.0-0.5","Madonna","njn","","","","","","","500","","","","","","","",""
"241","<div style='bottom:60%; right:20%; left:20%; position:fixed'><img src=https://realitybending.github.io/IllusionGameSelfAssociation/experiment/SelfAssociation/stimuli/triangle.png height=20%></img></div><div  style='font-size:500%; position:fixed; text-align: center; top:50%; bottom:50%; right:20%; left:20%'>+</div><div style = ""font-size:300%; text-align: center; position:fixed; top:70%; left:20%""><b>You</b></br></br></br></br>v</div><div style = ""font-size:300%; text-align: center; position:fixed; top:70%; right:20%; left:20%""><b>Madonna</b></br></br></br></br>b</div><div style = ""font-size:300%; text-align: center; position:fixed; top:70%; right:20%""><b>njn</b></br></br></br></br>n</div>","v","sat_practicetrial","html-keyboard-response","24","66164","0.0-8.0-1.5","Madonna","njn","","","","","","","","triangle","6","You","You","true","Self","",""
"null","<p style = 'font-size: 300%; color:green'>Correct!</p>","null","sat_feedback","html-keyboard-response","25","66672","0.0-8.0-2.5","Madonna","njn","","","","","","","","","","","","","","",""
"1527","<h1>Congratulations!</h1><p>You have completed the training.</p>","0","sat_practice_end","html-button-response","26","68201","0.0-9.0","Madonna","njn","","","","","","","","","","","","","","",""
"1334","<h1>Instructions</h1><p>In this part of the game, the previous shapes will be re-assigned to the labels.</p><p>Your task will be then to decide if the presented shape matches their newly assigned label as quickly and accurately as possible.</p><p>If the shape-label pair is a match, press <b>'e'</b>.</p><p>If the shape-label pair is not a match, press <b>'i'</b></p><br><p>Good luck!</p>","0","matching_instructions","html-button-response","27","69537","0.0-10.0","Madonna","njn","","","","","","","","","","","","","","",""
"1983","<h1>Instructions</h1><div id ='align-middle'><b>You</b> will be represented by a <b>triangle</b>  <img src= https://realitybending.github.io/IllusionGameSelfAssociation/experiment/SelfAssociation/stimuli/triangle.png height=40></img></div><br><div id ='align-middle'><b>Madonna</b> will be represented by a <b>circle</b>  <img src= https://realitybending.github.io/IllusionGameSelfAssociation/experiment/SelfAssociation/stimuli/circle.png height=40></img></div><br><div id = 'align-middle'><b>njn</b> will be represented by a <b>square</b>  <img src= https://realitybending.github.io/IllusionGameSelfAssociation/experiment/SelfAssociation/stimuli/square.png height=40></img></div><br>","0","SAT_assignmentscreen","html-button-response","28","71522","0.0-11.0","Madonna","njn","","","","","","","","","","","","","","",""
"null","<div  style='font-size:500%; position:fixed; text-align: center; top:50%; bottom:50%; right:20%; left:20%'>+</div>","null","sat_fixationcross","html-keyboard-response","29","72034","0.0-12.0-0.0","Madonna","njn","","","","","","","500","","","","","","","",""
"3966","<div style='bottom:60%; right:20%; left:20%; position:fixed'><img src=https://realitybending.github.io/IllusionGameSelfAssociation/experiment/SelfAssociation/stimuli/circle.png height=20%></img></div><div  style='font-size:500%; position:fixed; text-align: center; top:50%; bottom:50%; right:20%; left:20%'>+</div><div style = ""font-size:300%; text-align: center; position:fixed; top:70%; right:20%; left:20%""><b>njn</div>","e","sat_trial","html-keyboard-response","30","76001","0.0-12.0-1.0","Madonna","njn","","","","","","","","circle","1","match","match","true","","Stranger","1"
"null","<p style = 'font-size: 300%; color:green'>Correct!</p>","null","sat_feedback","html-keyboard-response","31","76504","0.0-12.0-2.0","Madonna","njn","","","","","","","","","","","","","","",""
"null","<div  style='font-size:500%; position:fixed; text-align: center; top:50%; bottom:50%; right:20%; left:20%'>+</div>","null","sat_fixationcross","html-keyboard-response","32","77028","0.0-12.0-0.1","Madonna","njn","","","","","","","500","","","","","","","",""
"252","<div style='bottom:60%; right:20%; left:20%; position:fixed'><img src=https://realitybending.github.io/IllusionGameSelfAssociation/experiment/SelfAssociation/stimuli/square.png height=20%></img></div><div  style='font-size:500%; position:fixed; text-align: center; top:50%; bottom:50%; right:20%; left:20%'>+</div><div style = ""font-size:300%; text-align: center; position:fixed; top:70%; right:20%; left:20%""><b>You</div>","e","sat_trial","html-keyboard-response","33","77281","0.0-12.0-1.1","Madonna","njn","","","","","","","","square","2","match","mismatch","false","","Self","1"
"null","<p style = 'font-size: 300%; color:red'>Incorrect!</p>","null","sat_feedback","html-keyboard-response","34","77796","0.0-12.0-2.1","Madonna","njn","","","","","","","","","","","","","","",""
"null","<div  style='font-size:500%; position:fixed; text-align: center; top:50%; bottom:50%; right:20%; left:20%'>+</div>","null","sat_fixationcross","html-keyboard-response","35","78312","0.0-12.0-0.2","Madonna","njn","","","","","","","500","","","","","","","",""
"301","<div style='bottom:60%; right:20%; left:20%; position:fixed'><img src=https://realitybending.github.io/IllusionGameSelfAssociation/experiment/SelfAssociation/stimuli/triangle.png height=20%></img></div><div  style='font-size:500%; position:fixed; text-align: center; top:50%; bottom:50%; right:20%; left:20%'>+</div><div style = ""font-size:300%; text-align: center; position:fixed; top:70%; right:20%; left:20%""><b>njn</div>","e","sat_trial","html-keyboard-response","36","78614","0.0-12.0-1.2","Madonna","njn","","","","","","","","triangle","3","match","mismatch","false","","Stranger","1"
"null","<p style = 'font-size: 300%; color:red'>Incorrect!</p>","null","sat_feedback","html-keyboard-response","37","79135","0.0-12.0-2.2","Madonna","njn","","","","","","","","","","","","","","",""
"null","<div  style='font-size:500%; position:fixed; text-align: center; top:50%; bottom:50%; right:20%; left:20%'>+</div>","null","sat_fixationcross","html-keyboard-response","38","79638","0.0-12.0-0.3","Madonna","njn","","","","","","","500","","","","","","","",""
"416","<div style='bottom:60%; right:20%; left:20%; position:fixed'><img src=https://realitybending.github.io/IllusionGameSelfAssociation/experiment/SelfAssociation/stimuli/square.png height=20%></img></div><div  style='font-size:500%; position:fixed; text-align: center; top:50%; bottom:50%; right:20%; left:20%'>+</div><div style = ""font-size:300%; text-align: center; position:fixed; top:70%; right:20%; left:20%""><b>Madonna</div>","e","sat_trial","html-keyboard-response","39","80056","0.0-12.0-1.3","Madonna","njn","","","","","","","","square","4","match","match","true","","Friend","1"
"null","<p style = 'font-size: 300%; color:green'>Correct!</p>","null","sat_feedback","html-keyboard-response","40","80570","0.0-12.0-2.3","Madonna","njn","","","","","","","","","","","","","","",""
"null","<div  style='font-size:500%; position:fixed; text-align: center; top:50%; bottom:50%; right:20%; left:20%'>+</div>","null","sat_fixationcross","html-keyboard-response","41","81088","0.0-12.0-0.4","Madonna","njn","","","","","","","500","","","","","","","",""
"252","<div style='bottom:60%; right:20%; left:20%; position:fixed'><img src=https://realitybending.github.io/IllusionGameSelfAssociation/experiment/SelfAssociation/stimuli/triangle.png height=20%></img></div><div  style='font-size:500%; position:fixed; text-align: center; top:50%; bottom:50%; right:20%; left:20%'>+</div><div style = ""font-size:300%; text-align: center; position:fixed; top:70%; right:20%; left:20%""><b>You</div>","e","sat_trial","html-keyboard-response","42","81342","0.0-12.0-1.4","Madonna","njn","","","","","","","","triangle","5","match","match","true","","Self","1"
"null","<p style = 'font-size: 300%; color:green'>Correct!</p>","null","sat_feedback","html-keyboard-response","43","81857","0.0-12.0-2.4","Madonna","njn","","","","","","","","","","","","","","",""
"null","<div  style='font-size:500%; position:fixed; text-align: center; top:50%; bottom:50%; right:20%; left:20%'>+</div>","null","sat_fixationcross","html-keyboard-response","44","82359","0.0-12.0-0.5","Madonna","njn","","","","","","","500","","","","","","","",""
"305","<div style='bottom:60%; right:20%; left:20%; position:fixed'><img src=https://realitybending.github.io/IllusionGameSelfAssociation/experiment/SelfAssociation/stimuli/circle.png height=20%></img></div><div  style='font-size:500%; position:fixed; text-align: center; top:50%; bottom:50%; right:20%; left:20%'>+</div><div style = ""font-size:300%; text-align: center; position:fixed; top:70%; right:20%; left:20%""><b>You</div>","e","sat_trial","html-keyboard-response","45","82665","0.0-12.0-1.5","Madonna","njn","","","","","","","","circle","6","match","mismatch","false","","Self","1"
"null","<p style = 'font-size: 300%; color:red'>Incorrect!</p>","null","sat_feedback","html-keyboard-response","46","83176","0.0-12.0-2.5","Madonna","njn","","","","","","","","","","","","","","",""
"null","<div  style='font-size:500%; position:fixed; text-align: center; top:50%; bottom:50%; right:20%; left:20%'>+</div>","null","sat_fixationcross","html-keyboard-response","47","83678","0.0-12.0-0.6","Madonna","njn","","","","","","","500","","","","","","","",""
"219","<div style='bottom:60%; right:20%; left:20%; position:fixed'><img src=https://realitybending.github.io/IllusionGameSelfAssociation/experiment/SelfAssociation/stimuli/triangle.png height=20%></img></div><div  style='font-size:500%; position:fixed; text-align: center; top:50%; bottom:50%; right:20%; left:20%'>+</div><div style = ""font-size:300%; text-align: center; position:fixed; top:70%; right:20%; left:20%""><b>Madonna</div>","e","sat_trial","html-keyboard-response","48","83899","0.0-12.0-1.6","Madonna","njn","","","","","","","","triangle","7","match","mismatch","false","","Friend","1"
"null","<p style = 'font-size: 300%; color:red'>Incorrect!</p>","null","sat_feedback","html-keyboard-response","49","84411","0.0-12.0-2.6","Madonna","njn","","","","","","","","","","","","","","",""
"null","<div  style='font-size:500%; position:fixed; text-align: center; top:50%; bottom:50%; right:20%; left:20%'>+</div>","null","sat_fixationcross","html-keyboard-response","50","84931","0.0-12.0-0.7","Madonna","njn","","","","","","","500","","","","","","","",""
"107","<div style='bottom:60%; right:20%; left:20%; position:fixed'><img src=https://realitybending.github.io/IllusionGameSelfAssociation/experiment/SelfAssociation/stimuli/square.png height=20%></img></div><div  style='font-size:500%; position:fixed; text-align: center; top:50%; bottom:50%; right:20%; left:20%'>+</div><div style = ""font-size:300%; text-align: center; position:fixed; top:70%; right:20%; left:20%""><b>njn</div>","e","sat_trial","html-keyboard-response","51","85039","0.0-12.0-1.7","Madonna","njn","","","","","","","","square","8","match","mismatch","false","","Stranger","1"
"null","<p style = 'font-size: 300%; color:red'>Incorrect!</p>","null","sat_feedback","html-keyboard-response","52","85552","0.0-12.0-2.7","Madonna","njn","","","","","","","","","","","","","","",""
"null","<div  style='font-size:500%; position:fixed; text-align: center; top:50%; bottom:50%; right:20%; left:20%'>+</div>","null","sat_fixationcross","html-keyboard-response","53","86067","0.0-12.0-0.8","Madonna","njn","","","","","","","500","","","","","","","",""
"369","<div style='bottom:60%; right:20%; left:20%; position:fixed'><img src=https://realitybending.github.io/IllusionGameSelfAssociation/experiment/SelfAssociation/stimuli/circle.png height=20%></img></div><div  style='font-size:500%; position:fixed; text-align: center; top:50%; bottom:50%; right:20%; left:20%'>+</div><div style = ""font-size:300%; text-align: center; position:fixed; top:70%; right:20%; left:20%""><b>Madonna</div>","e","sat_trial","html-keyboard-response","54","86438","0.0-12.0-1.8","Madonna","njn","","","","","","","","circle","9","match","mismatch","false","","Friend","1"
"null","<p style = 'font-size: 300%; color:red'>Incorrect!</p>","null","sat_feedback","html-keyboard-response","55","86956","0.0-12.0-2.8","Madonna","njn","","","","","","","","","","","","","","",""
"4376","<p>You responded correctly on <b>33.33%</b> of the trials.</p>","0","sat_block_debrief","html-button-response","56","91334","0.0-13.0","Madonna","njn","","","","","","","","","","","","","","",""
