"rt","stimulus","response","screen","trial_type","trial_index","time_elapsed","internal_node_id","label_stranger","label_friend","question_order","success","timeout","failed_images","failed_audio","failed_video","trial_duration","shape","trial_number","answer","answer_correct","correct","condition","label_condition","block_number"
"820","<img src='https://u-paris.fr/wp-content/uploads/2022/03/Universite_Paris-Cite-logo.jpeg' width='300px' align='right'/><br><br><br><br><br><h1>Informed Consent</h1><p align='left'>In this study, you will be asked to complete [TODO].</p><p align='left'>Your participation in this research will be kept completely confidential. <b>Your responses are entirely anonymous</b>, and no IP address or any identifiers are collected.</p><p align='left'>Your participation contributes to scientific advancement. <b>By participating, you agree to follow the instructions and provide honest answers.</b> If you do not wish to participate this survey, simply close your browser.</p><p align='left'><br><sub><sup>If you have any questions about the project, please contact [TODO] This project has been reviewed and approved by the Ethics Comitee of the University of [TODO].</sup></sub></p>","0","consent","html-button-response","0","821","0.0-0.0","Eminem","Babar","","","","","","","","","","","","","","",""
"2739","","{""sex"":""Male""}","demographics_1","survey-multi-choice","1","3561","0.0-1.0","Eminem","Babar","[0]","","","","","","","","","","","","","",""
"","","","","preload","2","3881","0.0-2.0","Eminem","Babar","","true","false","[]","[]","[]","","","","","","","","",""
"519","<h1>Shape-Label Association Game</h1><p>In this task, you will be shown some <b>shapes</b> that will be assigned to a <b>label</b> (You, Your Best Friend and a Stranger).</p><p>To personalize this game to your own experience, you will first select who you want the friend and the stranger to be.</p>","0","SAT_instructions_general","html-button-response","3","4400","0.0-3.0","Eminem","Babar","","","","","","","","","","","","","","",""
"1296","","{""label_stranger"":""Eminem""}","SAT_strangerlabel","survey-multi-choice","4","5698","0.0-4.0","Eminem","Babar","[0]","","","","","","","","","","","","","",""
"4279","","{""label_friend"":""Babar""}","SAT_friendlabel","survey-text","5","9980","0.0-5.0","Eminem","Babar","","","","","","","","","","","","","","",""
"821","<h1>Practice</h1><p>Each label (i.e., You, Best Friend, Stranger) will be assigned to a specific shape (circle, square or triangle)</p><p>During the practice phase, you will be presented with one of the shapes above a fixation cross, together with the three labels below the fixation cross.</p><p>Your task is to select the label that corresponds with the presented shape as quickly and accurately as possible</p><p>If the correct label is on the <b>left</b>, press <b>'v'</b>.</p><p>If the correct label is in the <b>middle</b>, press <b>'b'</b>.</p><p>If the correct label is on the <b>right</b>, press <b>'n'</b>.</p><br>","0","SAT_instructions_practice","html-button-response","6","10802","0.0-6.0","Eminem","Babar","","","","","","","","","","","","","","",""
"3362","<h1>Instructions</h1><div id ='align-middle'><b>You</b> will be represented by a <b>circle</b>  <img src= https://realitybending.github.io/IllusionGameSelfAssociation/experiment/SelfAssociation/stimuli/circle.png height=40></img></div><br><div id ='align-middle'><b>Eminem</b> will be represented by a <b>triangle</b>  <img src= https://realitybending.github.io/IllusionGameSelfAssociation/experiment/SelfAssociation/stimuli/triangle.png height=40></img></div><br><div id = 'align-middle'><b>Babar</b> will be represented by a <b>square</b>  <img src= https://realitybending.github.io/IllusionGameSelfAssociation/experiment/SelfAssociation/stimuli/square.png height=40></img></div><br>","0","SAT_assignmentscreen","html-button-response","7","14165","0.0-7.0","Eminem","Babar","","","","","","","","","","","","","","",""
"null","<div  style='font-size:500%; position:fixed; text-align: center; top:50%; bottom:50%; right:20%; left:20%'>+</div>","null","sat_fixationcross","html-keyboard-response","8","14670","0.0-8.0-0.0","Eminem","Babar","","","","","","","500","","","","","","","",""
"3039","<div style='bottom:60%; right:20%; left:20%; position:fixed'><img src=https://realitybending.github.io/IllusionGameSelfAssociation/experiment/SelfAssociation/stimuli/square.png height=20%></img></div><div  style='font-size:500%; position:fixed; text-align: center; top:50%; bottom:50%; right:20%; left:20%'>+</div><div style = ""font-size:300%; text-align: center; position:fixed; top:70%; left:20%""><b>You</b></br></br></br></br>v</div><div style = ""font-size:300%; text-align: center; position:fixed; top:70%; right:20%; left:20%""><b>Eminem</b></br></br></br></br>b</div><div style = ""font-size:300%; text-align: center; position:fixed; top:70%; right:20%""><b>Babar</b></br></br></br></br>n</div>","b","sat_practicetrial","html-keyboard-response","9","17710","0.0-8.0-1.0","Eminem","Babar","","","","","","","","square","1","Eminem","Babar","false","Friend","",""
"null","<p style = 'font-size: 300%; color:red'>Incorrect!</p>","null","sat_feedback","html-keyboard-response","10","18225","0.0-8.0-2.0","Eminem","Babar","","","","","","","","","","","","","","",""
"null","<div  style='font-size:500%; position:fixed; text-align: center; top:50%; bottom:50%; right:20%; left:20%'>+</div>","null","sat_fixationcross","html-keyboard-response","11","18738","0.0-8.0-0.1","Eminem","Babar","","","","","","","500","","","","","","","",""
"1374","<div style='bottom:60%; right:20%; left:20%; position:fixed'><img src=https://realitybending.github.io/IllusionGameSelfAssociation/experiment/SelfAssociation/stimuli/circle.png height=20%></img></div><div  style='font-size:500%; position:fixed; text-align: center; top:50%; bottom:50%; right:20%; left:20%'>+</div><div style = ""font-size:300%; text-align: center; position:fixed; top:70%; left:20%""><b>You</b></br></br></br></br>v</div><div style = ""font-size:300%; text-align: center; position:fixed; top:70%; right:20%; left:20%""><b>Eminem</b></br></br></br></br>b</div><div style = ""font-size:300%; text-align: center; position:fixed; top:70%; right:20%""><b>Babar</b></br></br></br></br>n</div>","v","sat_practicetrial","html-keyboard-response","12","20113","0.0-8.0-1.1","Eminem","Babar","","","","","","","","circle","2","You","You","true","Self","",""
"null","<p style = 'font-size: 300%; color:green'>Correct!</p>","null","sat_feedback","html-keyboard-response","13","20617","0.0-8.0-2.1","Eminem","Babar","","","","","","","","","","","","","","",""
"null","<div  style='font-size:500%; position:fixed; text-align: center; top:50%; bottom:50%; right:20%; left:20%'>+</div>","null","sat_fixationcross","html-keyboard-response","14","21123","0.0-8.0-0.2","Eminem","Babar","","","","","","","500","","","","","","","",""
"1304","<div style='bottom:60%; right:20%; left:20%; position:fixed'><img src=https://realitybending.github.io/IllusionGameSelfAssociation/experiment/SelfAssociation/stimuli/triangle.png height=20%></img></div><div  style='font-size:500%; position:fixed; text-align: center; top:50%; bottom:50%; right:20%; left:20%'>+</div><div style = ""font-size:300%; text-align: center; position:fixed; top:70%; left:20%""><b>You</b></br></br></br></br>v</div><div style = ""font-size:300%; text-align: center; position:fixed; top:70%; right:20%; left:20%""><b>Eminem</b></br></br></br></br>b</div><div style = ""font-size:300%; text-align: center; position:fixed; top:70%; right:20%""><b>Babar</b></br></br></br></br>n</div>","b","sat_practicetrial","html-keyboard-response","15","22427","0.0-8.0-1.2","Eminem","Babar","","","","","","","","triangle","3","Eminem","Eminem","true","Stranger","",""
"null","<p style = 'font-size: 300%; color:green'>Correct!</p>","null","sat_feedback","html-keyboard-response","16","22932","0.0-8.0-2.2","Eminem","Babar","","","","","","","","","","","","","","",""
"null","<div  style='font-size:500%; position:fixed; text-align: center; top:50%; bottom:50%; right:20%; left:20%'>+</div>","null","sat_fixationcross","html-keyboard-response","17","23445","0.0-8.0-0.3","Eminem","Babar","","","","","","","500","","","","","","","",""
"631","<div style='bottom:60%; right:20%; left:20%; position:fixed'><img src=https://realitybending.github.io/IllusionGameSelfAssociation/experiment/SelfAssociation/stimuli/circle.png height=20%></img></div><div  style='font-size:500%; position:fixed; text-align: center; top:50%; bottom:50%; right:20%; left:20%'>+</div><div style = ""font-size:300%; text-align: center; position:fixed; top:70%; left:20%""><b>You</b></br></br></br></br>v</div><div style = ""font-size:300%; text-align: center; position:fixed; top:70%; right:20%; left:20%""><b>Eminem</b></br></br></br></br>b</div><div style = ""font-size:300%; text-align: center; position:fixed; top:70%; right:20%""><b>Babar</b></br></br></br></br>n</div>","v","sat_practicetrial","html-keyboard-response","18","24076","0.0-8.0-1.3","Eminem","Babar","","","","","","","","circle","4","You","You","true","Self","",""
"null","<p style = 'font-size: 300%; color:green'>Correct!</p>","null","sat_feedback","html-keyboard-response","19","24586","0.0-8.0-2.3","Eminem","Babar","","","","","","","","","","","","","","",""
"null","<div  style='font-size:500%; position:fixed; text-align: center; top:50%; bottom:50%; right:20%; left:20%'>+</div>","null","sat_fixationcross","html-keyboard-response","20","25098","0.0-8.0-0.4","Eminem","Babar","","","","","","","500","","","","","","","",""
"526","<div style='bottom:60%; right:20%; left:20%; position:fixed'><img src=https://realitybending.github.io/IllusionGameSelfAssociation/experiment/SelfAssociation/stimuli/square.png height=20%></img></div><div  style='font-size:500%; position:fixed; text-align: center; top:50%; bottom:50%; right:20%; left:20%'>+</div><div style = ""font-size:300%; text-align: center; position:fixed; top:70%; left:20%""><b>You</b></br></br></br></br>v</div><div style = ""font-size:300%; text-align: center; position:fixed; top:70%; right:20%; left:20%""><b>Eminem</b></br></br></br></br>b</div><div style = ""font-size:300%; text-align: center; position:fixed; top:70%; right:20%""><b>Babar</b></br></br></br></br>n</div>","n","sat_practicetrial","html-keyboard-response","21","25624","0.0-8.0-1.4","Eminem","Babar","","","","","","","","square","5","Babar","Babar","true","Friend","",""
"null","<p style = 'font-size: 300%; color:green'>Correct!</p>","null","sat_feedback","html-keyboard-response","22","26126","0.0-8.0-2.4","Eminem","Babar","","","","","","","","","","","","","","",""
"null","<div  style='font-size:500%; position:fixed; text-align: center; top:50%; bottom:50%; right:20%; left:20%'>+</div>","null","sat_fixationcross","html-keyboard-response","23","26637","0.0-8.0-0.5","Eminem","Babar","","","","","","","500","","","","","","","",""
"220","<div style='bottom:60%; right:20%; left:20%; position:fixed'><img src=https://realitybending.github.io/IllusionGameSelfAssociation/experiment/SelfAssociation/stimuli/triangle.png height=20%></img></div><div  style='font-size:500%; position:fixed; text-align: center; top:50%; bottom:50%; right:20%; left:20%'>+</div><div style = ""font-size:300%; text-align: center; position:fixed; top:70%; left:20%""><b>You</b></br></br></br></br>v</div><div style = ""font-size:300%; text-align: center; position:fixed; top:70%; right:20%; left:20%""><b>Eminem</b></br></br></br></br>b</div><div style = ""font-size:300%; text-align: center; position:fixed; top:70%; right:20%""><b>Babar</b></br></br></br></br>n</div>","b","sat_practicetrial","html-keyboard-response","24","26858","0.0-8.0-1.5","Eminem","Babar","","","","","","","","triangle","6","Eminem","Eminem","true","Stranger","",""
"null","<p style = 'font-size: 300%; color:green'>Correct!</p>","null","sat_feedback","html-keyboard-response","25","27369","0.0-8.0-2.5","Eminem","Babar","","","","","","","","","","","","","","",""
"2525","<h1>Congratulations!</h1><p>You have completed the training.</p>","0","sat_practice_end","html-button-response","26","29894","0.0-9.0","Eminem","Babar","","","","","","","","","","","","","","",""
"2193","<h1>Instructions</h1><p>In this part of the game, the previous shapes will be re-assigned to the labels.</p><p>Your task will be then to decide if the presented shape matches their newly assigned label as quickly and accurately as possible.</p><p>If the shape-label pair is a match, press <b>'e'</b>.</p><p>If the shape-label pair is not a match, press <b>'i'</b></p><br><p>Good luck!</p>","0","matching_instructions","html-button-response","27","32087","0.0-10.0","Eminem","Babar","","","","","","","","","","","","","","",""
"17883","<h1>Instructions</h1><div id ='align-middle'><b>You</b> will be represented by a <b>triangle</b>  <img src= https://realitybending.github.io/IllusionGameSelfAssociation/experiment/SelfAssociation/stimuli/triangle.png height=40></img></div><br><div id ='align-middle'><b>Eminem</b> will be represented by a <b>square</b>  <img src= https://realitybending.github.io/IllusionGameSelfAssociation/experiment/SelfAssociation/stimuli/square.png height=40></img></div><br><div id = 'align-middle'><b>Babar</b> will be represented by a <b>circle</b>  <img src= https://realitybending.github.io/IllusionGameSelfAssociation/experiment/SelfAssociation/stimuli/circle.png height=40></img></div><br>","0","SAT_assignmentscreen","html-button-response","28","49972","0.0-11.0","Eminem","Babar","","","","","","","","","","","","","","",""
"null","<div  style='font-size:500%; position:fixed; text-align: center; top:50%; bottom:50%; right:20%; left:20%'>+</div>","null","sat_fixationcross","html-keyboard-response","29","50479","0.0-12.0-0.0","Eminem","Babar","","","","","","","500","","","","","","","",""
"2424","<div style='bottom:60%; right:20%; left:20%; position:fixed'><img src=https://realitybending.github.io/IllusionGameSelfAssociation/experiment/SelfAssociation/stimuli/circle.png height=20%></img></div><div  style='font-size:500%; position:fixed; text-align: center; top:50%; bottom:50%; right:20%; left:20%'>+</div><div style = ""font-size:300%; text-align: center; position:fixed; top:70%; right:20%; left:20%""><b>Babar</div>","i","sat_trial","html-keyboard-response","30","52904","0.0-12.0-1.0","Eminem","Babar","","","","","","","","circle","1","mismatch","mismatch","true","","Stranger","1"
"null","<p style = 'font-size: 300%; color:green'>Correct!</p>","null","sat_feedback","html-keyboard-response","31","53413","0.0-12.0-2.0","Eminem","Babar","","","","","","","","","","","","","","",""
"null","<div  style='font-size:500%; position:fixed; text-align: center; top:50%; bottom:50%; right:20%; left:20%'>+</div>","null","sat_fixationcross","html-keyboard-response","32","53925","0.0-12.0-0.1","Eminem","Babar","","","","","","","500","","","","","","","",""
"1060","<div style='bottom:60%; right:20%; left:20%; position:fixed'><img src=https://realitybending.github.io/IllusionGameSelfAssociation/experiment/SelfAssociation/stimuli/square.png height=20%></img></div><div  style='font-size:500%; position:fixed; text-align: center; top:50%; bottom:50%; right:20%; left:20%'>+</div><div style = ""font-size:300%; text-align: center; position:fixed; top:70%; right:20%; left:20%""><b>Babar</div>","i","sat_trial","html-keyboard-response","33","54986","0.0-12.0-1.1","Eminem","Babar","","","","","","","","square","2","mismatch","match","false","","Stranger","1"
"null","<p style = 'font-size: 300%; color:red'>Incorrect!</p>","null","sat_feedback","html-keyboard-response","34","55492","0.0-12.0-2.1","Eminem","Babar","","","","","","","","","","","","","","",""
"null","<div  style='font-size:500%; position:fixed; text-align: center; top:50%; bottom:50%; right:20%; left:20%'>+</div>","null","sat_fixationcross","html-keyboard-response","35","56007","0.0-12.0-0.2","Eminem","Babar","","","","","","","500","","","","","","","",""
"659","<div style='bottom:60%; right:20%; left:20%; position:fixed'><img src=https://realitybending.github.io/IllusionGameSelfAssociation/experiment/SelfAssociation/stimuli/triangle.png height=20%></img></div><div  style='font-size:500%; position:fixed; text-align: center; top:50%; bottom:50%; right:20%; left:20%'>+</div><div style = ""font-size:300%; text-align: center; position:fixed; top:70%; right:20%; left:20%""><b>You</div>","e","sat_trial","html-keyboard-response","36","56668","0.0-12.0-1.2","Eminem","Babar","","","","","","","","triangle","3","match","match","true","","Self","1"
"null","<p style = 'font-size: 300%; color:green'>Correct!</p>","null","sat_feedback","html-keyboard-response","37","57172","0.0-12.0-2.2","Eminem","Babar","","","","","","","","","","","","","","",""
"null","<div  style='font-size:500%; position:fixed; text-align: center; top:50%; bottom:50%; right:20%; left:20%'>+</div>","null","sat_fixationcross","html-keyboard-response","38","57681","0.0-12.0-0.3","Eminem","Babar","","","","","","","500","","","","","","","",""
"1116","<div style='bottom:60%; right:20%; left:20%; position:fixed'><img src=https://realitybending.github.io/IllusionGameSelfAssociation/experiment/SelfAssociation/stimuli/square.png height=20%></img></div><div  style='font-size:500%; position:fixed; text-align: center; top:50%; bottom:50%; right:20%; left:20%'>+</div><div style = ""font-size:300%; text-align: center; position:fixed; top:70%; right:20%; left:20%""><b>You</div>","e","sat_trial","html-keyboard-response","39","58797","0.0-12.0-1.3","Eminem","Babar","","","","","","","","square","4","match","mismatch","false","","Self","1"
"null","<p style = 'font-size: 300%; color:red'>Incorrect!</p>","null","sat_feedback","html-keyboard-response","40","59312","0.0-12.0-2.3","Eminem","Babar","","","","","","","","","","","","","","",""
"null","<div  style='font-size:500%; position:fixed; text-align: center; top:50%; bottom:50%; right:20%; left:20%'>+</div>","null","sat_fixationcross","html-keyboard-response","41","59812","0.0-12.0-0.4","Eminem","Babar","","","","","","","500","","","","","","","",""
"1170","<div style='bottom:60%; right:20%; left:20%; position:fixed'><img src=https://realitybending.github.io/IllusionGameSelfAssociation/experiment/SelfAssociation/stimuli/triangle.png height=20%></img></div><div  style='font-size:500%; position:fixed; text-align: center; top:50%; bottom:50%; right:20%; left:20%'>+</div><div style = ""font-size:300%; text-align: center; position:fixed; top:70%; right:20%; left:20%""><b>Eminem</div>","i","sat_trial","html-keyboard-response","42","60983","0.0-12.0-1.4","Eminem","Babar","","","","","","","","triangle","5","mismatch","mismatch","true","","Friend","1"
"null","<p style = 'font-size: 300%; color:green'>Correct!</p>","null","sat_feedback","html-keyboard-response","43","61490","0.0-12.0-2.4","Eminem","Babar","","","","","","","","","","","","","","",""
"null","<div  style='font-size:500%; position:fixed; text-align: center; top:50%; bottom:50%; right:20%; left:20%'>+</div>","null","sat_fixationcross","html-keyboard-response","44","62005","0.0-12.0-0.5","Eminem","Babar","","","","","","","500","","","","","","","",""
"1231","<div style='bottom:60%; right:20%; left:20%; position:fixed'><img src=https://realitybending.github.io/IllusionGameSelfAssociation/experiment/SelfAssociation/stimuli/circle.png height=20%></img></div><div  style='font-size:500%; position:fixed; text-align: center; top:50%; bottom:50%; right:20%; left:20%'>+</div><div style = ""font-size:300%; text-align: center; position:fixed; top:70%; right:20%; left:20%""><b>You</div>","i","sat_trial","html-keyboard-response","45","63236","0.0-12.0-1.5","Eminem","Babar","","","","","","","","circle","6","mismatch","mismatch","true","","Self","1"
"null","<p style = 'font-size: 300%; color:green'>Correct!</p>","null","sat_feedback","html-keyboard-response","46","63740","0.0-12.0-2.5","Eminem","Babar","","","","","","","","","","","","","","",""
"null","<div  style='font-size:500%; position:fixed; text-align: center; top:50%; bottom:50%; right:20%; left:20%'>+</div>","null","sat_fixationcross","html-keyboard-response","47","64251","0.0-12.0-0.6","Eminem","Babar","","","","","","","500","","","","","","","",""
"498","<div style='bottom:60%; right:20%; left:20%; position:fixed'><img src=https://realitybending.github.io/IllusionGameSelfAssociation/experiment/SelfAssociation/stimuli/circle.png height=20%></img></div><div  style='font-size:500%; position:fixed; text-align: center; top:50%; bottom:50%; right:20%; left:20%'>+</div><div style = ""font-size:300%; text-align: center; position:fixed; top:70%; right:20%; left:20%""><b>Eminem</div>","i","sat_trial","html-keyboard-response","48","64750","0.0-12.0-1.6","Eminem","Babar","","","","","","","","circle","7","mismatch","match","false","","Friend","1"
"505","<p style = 'font-size: 300%; color:red'>Incorrect!</p>","e","sat_feedback","html-keyboard-response","49","65255","0.0-12.0-2.6","Eminem","Babar","","","","","","","","","","","","","","",""
"null","<div  style='font-size:500%; position:fixed; text-align: center; top:50%; bottom:50%; right:20%; left:20%'>+</div>","null","sat_fixationcross","html-keyboard-response","50","65756","0.0-12.0-0.7","Eminem","Babar","","","","","","","500","","","","","","","",""
"487","<div style='bottom:60%; right:20%; left:20%; position:fixed'><img src=https://realitybending.github.io/IllusionGameSelfAssociation/experiment/SelfAssociation/stimuli/triangle.png height=20%></img></div><div  style='font-size:500%; position:fixed; text-align: center; top:50%; bottom:50%; right:20%; left:20%'>+</div><div style = ""font-size:300%; text-align: center; position:fixed; top:70%; right:20%; left:20%""><b>Babar</div>","e","sat_trial","html-keyboard-response","51","66244","0.0-12.0-1.7","Eminem","Babar","","","","","","","","triangle","8","match","mismatch","false","","Stranger","1"
"null","<p style = 'font-size: 300%; color:red'>Incorrect!</p>","null","sat_feedback","html-keyboard-response","52","66749","0.0-12.0-2.7","Eminem","Babar","","","","","","","","","","","","","","",""
"null","<div  style='font-size:500%; position:fixed; text-align: center; top:50%; bottom:50%; right:20%; left:20%'>+</div>","null","sat_fixationcross","html-keyboard-response","53","67259","0.0-12.0-0.8","Eminem","Babar","","","","","","","500","","","","","","","",""
"697","<div style='bottom:60%; right:20%; left:20%; position:fixed'><img src=https://realitybending.github.io/IllusionGameSelfAssociation/experiment/SelfAssociation/stimuli/square.png height=20%></img></div><div  style='font-size:500%; position:fixed; text-align: center; top:50%; bottom:50%; right:20%; left:20%'>+</div><div style = ""font-size:300%; text-align: center; position:fixed; top:70%; right:20%; left:20%""><b>Eminem</div>","e","sat_trial","html-keyboard-response","54","67956","0.0-12.0-1.8","Eminem","Babar","","","","","","","","square","9","match","mismatch","false","","Friend","1"
"null","<p style = 'font-size: 300%; color:red'>Incorrect!</p>","null","sat_feedback","html-keyboard-response","55","68471","0.0-12.0-2.8","Eminem","Babar","","","","","","","","","","","","","","",""
"12286","<p>You responded correctly on <b>44.44%</b> of the trials.</p>","0","sat_block_debrief","html-button-response","56","80758","0.0-13.0","Eminem","Babar","","","","","","","","","","","","","","",""
