"success","screen","group","trial_type","trial_index","time_elapsed","internal_node_id","width","height","webaudio","browser","browser_version","mobile","os","fullscreen","webcam","microphone","vsync_rate","date","time","screen_height","screen_width","researcher","sona_id","prolific_id","study_id","session_id","rt","stimulus","response","question_order","timeout","failed_images","failed_audio","failed_video","trial_duration","file","block","correct_response","Illusion_Type","Illusion_Strength","Illusion_Difference","isi","fixation_cross","correct","type","illusion_strength","illusion_difference","block_number","trial_number"
"true","fullscreen","psychedelic_society","fullscreen","0","1332","0.0-0.0","","","","","","","","","","","","","","","","","","","","","","","","","","","","","","","","","","","","","","","","","","",""
"","browser_info","","browser-check","1","1357","0.0-1.0","2530","1175","true","chrome","122.0.0","false","Mac OS","true","true","true","60","22/03/2024","16:03:46","1175","2530","","","","","","","","","","","","","","","","","","","","","","","","","","","",""
"","consent","","html-button-response","2","3412","0.0-2.0","","","","","","","","","","","","","","","","","","","","","2053","<img src='https://u-paris.fr/wp-content/uploads/2022/03/Universite_Paris-Cite-logo.jpeg' width='300px' align='right'/><br><br><br><br><br><h1>Consentement éclairé</h1><p align='left'>Dans cette étude, vous allez devoir compléter deux tâches sous forme de jeux pour mesurer (i) <b>vos capacités d'associations</b> et (ii) votre <b>sensibilité aux illusions visuelles</b>.</p><p align='left'>Vous aurez aussi à compléter trois questionnaires à propos de (i) <b>votre fonctionnement psychologique</b> et (ii) votre <b>dernière expérience avec une substance psychédélique classique</b>.</p><p align='left'>L'étude dure environ 40 minutes au total. Nous vous demandons de veiller à bien rester concentré et à fournir des réponses authentiques.</p><p align='left'>Votre participation à cette recherche est confidentielle. <b>Vos réponses seront totalement anonymisées</b>, et votre adresse IP ni aucune autres informations identifiantes ne sont collectées.</p><p align='left'>Vos données sont essentielles pour nous. Elles contribuent aux avancées scientifiques sur les thérapies-assistées par psychédéliques. <b>En participant, vous acceptez de suivre les instructions et de fournir des réponses honnêtes.</b> Si vous ne souhaitez pas participer à cette étude, vous pouvez simplement fermer votre navigateur.</p><p align='left'>Vous avez également le droit de vous retirer de l'étude à n'importe quel moment, pour cela, vous pouvez simplement fermer votre navigateur web.</p><p align='left'><br><sub><sup>Si vous avez des questions sur le projets, veuillez contacter Baptiste Fauvel (baptiste.fauvel@u-paris.fr). Cette étude a été expertisée et validée par le comité d'éthique de l'université de Paris.</sup></sub></p>","0","","","","","","","","","","","","","","","","","","","",""
"","demographics_1","","survey-multi-choice","3","5763","0.0-3.0-0.0","","","","","","","","","","","","","","","","","","","","","2350","","{""sex"":""Homme"",""student"":"""",""education"":"""",""language"":""""}","[0,1,2,3]","","","","","","","","","","","","","","","","","","",""
"","demographics_2","","survey-text","4","8126","0.0-3.0-1.0","","","","","","","","","","","","","","","","","","","","","2360","","{""age"":""xxx""}","","","","","","","","","","","","","","","","","","","",""
"","","","html-button-response","5","12198","0.0-4.0","","","","","","","","","","","","","","","","","","","","","4071","<p style=""font-size:18px; color:black;"">Avez-vous <b>déjà</b> été diagnostiqué pour une des pathologies suivantes ?</p>","1","","","","","","","","","","","","","","","","","","","",""
"","","","html-button-response","6","13672","0.0-6.0","","","","","","","","","","","","","","","","","","","","","1473","<p style=""font-size:18px; color:black;"">Etes-vous <b>en ce moment</b> diagnostiqué pour une des pathologies suivantes?</p>","1","","","","","","","","","","","","","","","","","","","",""
"","","","html-button-response","7","15460","0.0-8.0","","","","","","","","","","","","","","","","","","","","","1788","<p style=""font-size:18px; color:black;"">Méditez-vous régulièrement? E.g. au moins une fois par semaine</p>","1","","","","","","","","","","","","","","","","","","","",""
"","","","survey-multi-choice","8","17182","0.0-10.0-0.0","","","","","","","","","","","","","","","","","","","","","1720","","{""psych_freq"":""Entre 6 et 10 fois""}","[0]","","","","","","","","","","","","","","","","","","",""
"","","","html-button-response","9","18532","0.0-10.0-1.0","","","","","","","","","","","","","","","","","","","","","1348","<p style=""font-size:18px; color:black;"">Avez-vous consommé une substance psychédélique classique (e.g., LSD, champignons à psilocybe, ayahuasca) au cours du derniers mois ?</p>","1","","","","","","","","","","","","","","","","","","","",""
"","","","survey-text","10","21344","0.0-10.0-2.0","","","","","","","","","","","","","","","","","","","","","2811","","{""Q0"":""xxx""}","","","","","","","","","","","","","","","","","","","",""
"","","","survey-multi-choice","11","26733","0.0-10.0-3.0","","","","","","","","","","","","","","","","","","","","","5388","","{""intention"":""Curiosité"",""substance"":""Psilocybine/champignons/truffes"",""dose"":""Plus élevée qu'une dose typique""}","[0,1,2]","","","","","","","","","","","","","","","","","","",""
"","","","survey-multi-choice","12","36780","0.0-10.0-4.0","","","","","","","","","","","","","","","","","","","","","10043","","{""cannabis"":""Non"",""Alcool"":""Oui"",""stimulants"":""Non"",""MDMA"":""Non"",""Opiacés"":""Non"",""Dissociatifs"":""Non""}","[0,1,2,3,4,5]","","","","","","","","","","","","","","","","","","",""
"","IG_instructions","","html-button-response","13","38838","0.0-11.0-0.0","","","","","","","","","","","","","","","","","","","","","2056","<h1>Le jeux d'illusions</h1><p>Dans ce jeu de rapidité et de réflexe, vous allez devoir faire des <b>jugements visuels</b> (par exemple, quel cercle est le plus grand, ou quelle ligne est la plus longue), aussi rapidement et justement que possible, tout en <b>résistant à des illusions visuelles</b>.</p><p>Nous allons débuter avec quelques exemples de toutes les illusions que vous allez rencontrer dans le jeu.</p>","0","","","","","","","","","","","","","","","","","","","",""
"true","IG_Preload","","preload","14","39002","0.0-11.0-1.0-0.0","","","","","","","","","","","","","","","","","","","","","","","","","false","[]","[]","[]","","","","","","","","","","","","","","",""
"","IG_Instructions","","html-keyboard-response","15","40289","0.0-11.0-1.0-1.0","","","","","","","","","","","","","","","","","","","","","1287","<p><b>Entraînement</b></p><p>Dans cette partie, deux cercles rouges vont apparaître côte à côte à l'écran.</p><p>Vous devez sélectionner quel <b>cercle rouge est plus grand</b> aussi rapidement que possible et sans faire d'erreurs.</p><p>Ne soyez pas distraits par les cercles noirs autour des cercles rouges!</p><p>Appuyez sur <b>la flèche GAUCHE ou DROITE</b> pour indiquer quel est le plus grand <b>cercle rouge</b>.</p><div style='float: center'><img src='https://realitybending.github.io/IllusionGame/v3//images/Ebbinghaus_Demo.png' height='200'></img><p><img src='https://realitybending.github.io/IllusionGame/v3//images/answer_leftright_keyboard.PNG' height='100'></img></p><p class='small'>Dans cet exemple, la réponse correcte est la <b>flèche GAUCHE</b>.</p></div><p>Êtes-vous prêt? <b>Appuyer sur la touche ENTRÉE pour démarrer</b></p>","enter","","","","","","","","","","","","","","","","","","","",""
"","IG_FixationCross","","html-keyboard-response","16","41881","0.0-11.0-1.0-2.0-0.0","","","","","","","","","","","","","","","","","","","","","null","<p style=""color: black; font-size: 80px; padding-left: 30%; padding-right: 35%; padding-top: 31%; padding-bottom: 13%"">+</p>","null","","","","","","1088","","","","","","","","","","","","","",""
"","IG_Trial","","image-keyboard-response","17","43069","0.0-11.0-1.0-2.0-1.0","","","","","","","","","","","","","","","","","","","","","1181","https://realitybending.github.io/IllusionGame/v3/stimuli/Ebbinghaus_-1.0000_1.40000.png","arrowleft","","","","","","","Ebbinghaus_-1.0000_1.40000.png","Practice","arrowleft","Ebbinghaus","-1.000000000","1.4000000000","41881","<p style=""color: black; font-size: 80px; padding-left: 30%; padding-right: 35%; padding-top: 31%; padding-bottom: 13%"">+</p>","true","Ebbinghaus","function () {
            return jsPsych.timelineVariable(""Illusion_Strength"")
        }","function () {
            return jsPsych.timelineVariable(""Difference"")
        }","1","1"
"","IG_FixationCross","","html-keyboard-response","18","43748","0.0-11.0-1.0-2.0-0.1","","","","","","","","","","","","","","","","","","","","","null","<p style=""color: black; font-size: 80px; padding-left: 7%; padding-right: 30%; padding-top: 1%; padding-bottom: 8%"">+</p>","null","","","","","","677","","","","","","","","","","","","","",""
"","IG_Trial","","image-keyboard-response","19","44337","0.0-11.0-1.0-2.0-1.1","","","","","","","","","","","","","","","","","","","","","588","https://realitybending.github.io/IllusionGame/v3/stimuli/Ebbinghaus_1.00000_1.40000.png","arrowright","","","","","","","Ebbinghaus_1.00000_1.40000.png","Practice","arrowleft","Ebbinghaus","1.0000000000","1.4000000000","43748","<p style=""color: black; font-size: 80px; padding-left: 7%; padding-right: 30%; padding-top: 1%; padding-bottom: 8%"">+</p>","false","Ebbinghaus","function () {
            return jsPsych.timelineVariable(""Illusion_Strength"")
        }","function () {
            return jsPsych.timelineVariable(""Difference"")
        }","1","2"
"","IG_FixationCross","","html-keyboard-response","20","44947","0.0-11.0-1.0-2.0-0.2","","","","","","","","","","","","","","","","","","","","","null","<p style=""color: black; font-size: 80px; padding-left: 29%; padding-right: 45%; padding-top: 48%; padding-bottom: 23%"">+</p>","null","","","","","","608","","","","","","","","","","","","","",""
"","IG_Trial","","image-keyboard-response","21","45565","0.0-11.0-1.0-2.0-1.2","","","","","","","","","","","","","","","","","","","","","617","https://realitybending.github.io/IllusionGame/v3/stimuli/Ebbinghaus_-0.1500_1.40000.png","arrowright","","","","","","","Ebbinghaus_-0.1500_1.40000.png","Practice","arrowleft","Ebbinghaus","-0.150000000","1.4000000000","44947","<p style=""color: black; font-size: 80px; padding-left: 29%; padding-right: 45%; padding-top: 48%; padding-bottom: 23%"">+</p>","false","Ebbinghaus","function () {
            return jsPsych.timelineVariable(""Illusion_Strength"")
        }","function () {
            return jsPsych.timelineVariable(""Difference"")
        }","1","3"
"","IG_FixationCross","","html-keyboard-response","22","46630","0.0-11.0-1.0-2.0-0.3","","","","","","","","","","","","","","","","","","","","","null","<p style=""color: black; font-size: 80px; padding-left: 24%; padding-right: 25%; padding-top: 18%; padding-bottom: 39%"">+</p>","null","","","","","","1063","","","","","","","","","","","","","",""
"","IG_Trial","","image-keyboard-response","23","47177","0.0-11.0-1.0-2.0-1.3","","","","","","","","","","","","","","","","","","","","","546","https://realitybending.github.io/IllusionGame/v3/stimuli/Ebbinghaus_1.00000_-1.4000.png","arrowleft","","","","","","","Ebbinghaus_1.00000_-1.4000.png","Practice","arrowright","Ebbinghaus","1.0000000000","-1.400000000","46630","<p style=""color: black; font-size: 80px; padding-left: 24%; padding-right: 25%; padding-top: 18%; padding-bottom: 39%"">+</p>","false","Ebbinghaus","function () {
            return jsPsych.timelineVariable(""Illusion_Strength"")
        }","function () {
            return jsPsych.timelineVariable(""Difference"")
        }","1","4"
"","IG_FixationCross","","html-keyboard-response","24","47902","0.0-11.0-1.0-2.0-0.4","","","","","","","","","","","","","","","","","","","","","null","<p style=""color: black; font-size: 80px; padding-left: 11%; padding-right: 0%; padding-top: 33%; padding-bottom: 49%"">+</p>","null","","","","","","723","","","","","","","","","","","","","",""
"","IG_Trial","","image-keyboard-response","25","48915","0.0-11.0-1.0-2.0-1.4","","","","","","","","","","","","","","","","","","","","","1012","https://realitybending.github.io/IllusionGame/v3/stimuli/Ebbinghaus_0.15000_-1.4000.png","arrowright","","","","","","","Ebbinghaus_0.15000_-1.4000.png","Practice","arrowright","Ebbinghaus","0.1500000000","-1.400000000","47902","<p style=""color: black; font-size: 80px; padding-left: 11%; padding-right: 0%; padding-top: 33%; padding-bottom: 49%"">+</p>","true","Ebbinghaus","function () {
            return jsPsych.timelineVariable(""Illusion_Strength"")
        }","function () {
            return jsPsych.timelineVariable(""Difference"")
        }","1","5"
"","IG_FixationCross","","html-keyboard-response","26","49846","0.0-11.0-1.0-2.0-0.5","","","","","","","","","","","","","","","","","","","","","null","<p style=""color: black; font-size: 80px; padding-left: 48%; padding-right: 14%; padding-top: 31%; padding-bottom: 5%"">+</p>","null","","","","","","929","","","","","","","","","","","","","",""
"","IG_Trial","","image-keyboard-response","27","50530","0.0-11.0-1.0-2.0-1.5","","","","","","","","","","","","","","","","","","","","","682","https://realitybending.github.io/IllusionGame/v3/stimuli/Ebbinghaus_0.15000_1.40000.png","arrowright","","","","","","","Ebbinghaus_0.15000_1.40000.png","Practice","arrowleft","Ebbinghaus","0.1500000000","1.4000000000","49846","<p style=""color: black; font-size: 80px; padding-left: 48%; padding-right: 14%; padding-top: 31%; padding-bottom: 5%"">+</p>","false","Ebbinghaus","function () {
            return jsPsych.timelineVariable(""Illusion_Strength"")
        }","function () {
            return jsPsych.timelineVariable(""Difference"")
        }","1","6"
"","IG_FixationCross","","html-keyboard-response","28","51411","0.0-11.0-1.0-2.0-0.6","","","","","","","","","","","","","","","","","","","","","null","<p style=""color: black; font-size: 80px; padding-left: 20%; padding-right: 26%; padding-top: 32%; padding-bottom: 32%"">+</p>","null","","","","","","879","","","","","","","","","","","","","",""
"","IG_Trial","","image-keyboard-response","29","52123","0.0-11.0-1.0-2.0-1.6","","","","","","","","","","","","","","","","","","","","","711","https://realitybending.github.io/IllusionGame/v3/stimuli/Ebbinghaus_-0.1500_-1.4000.png","arrowright","","","","","","","Ebbinghaus_-0.1500_-1.4000.png","Practice","arrowright","Ebbinghaus","-0.150000000","-1.400000000","51411","<p style=""color: black; font-size: 80px; padding-left: 20%; padding-right: 26%; padding-top: 32%; padding-bottom: 32%"">+</p>","true","Ebbinghaus","function () {
            return jsPsych.timelineVariable(""Illusion_Strength"")
        }","function () {
            return jsPsych.timelineVariable(""Difference"")
        }","1","7"
"","IG_FixationCross","","html-keyboard-response","30","53201","0.0-11.0-1.0-2.0-0.7","","","","","","","","","","","","","","","","","","","","","null","<p style=""color: black; font-size: 80px; padding-left: 2%; padding-right: 39%; padding-top: 44%; padding-bottom: 35%"">+</p>","null","","","","","","1077","","","","","","","","","","","","","",""
"","IG_Trial","","image-keyboard-response","31","54033","0.0-11.0-1.0-2.0-1.7","","","","","","","","","","","","","","","","","","","","","830","https://realitybending.github.io/IllusionGame/v3/stimuli/Ebbinghaus_-1.0000_-1.4000.png","arrowright","","","","","","","Ebbinghaus_-1.0000_-1.4000.png","Practice","arrowright","Ebbinghaus","-1.000000000","-1.400000000","53201","<p style=""color: black; font-size: 80px; padding-left: 2%; padding-right: 39%; padding-top: 44%; padding-bottom: 35%"">+</p>","true","Ebbinghaus","function () {
            return jsPsych.timelineVariable(""Illusion_Strength"")
        }","function () {
            return jsPsych.timelineVariable(""Difference"")
        }","1","8"
"","IG_PracticeResults","","html-button-response","32","61788","0.0-11.0-1.0-3.0","","","","","","","","","","","","","","","","","","","","","7753","<p style='color:rgb(76,175,80);'>Réponses correctes:<b>50.00%</b></p><hr><p style='color:rgb(139, 195, 74);'>Temps de réaction:<b>770.88</b> ms.</p>","0","","","","","","","","","","","","","","","","","","","",""
"true","IG_Preload","","preload","33","62439","0.0-11.0-2.0-0.0","","","","","","","","","","","","","","","","","","","","","","","","","false","[]","[]","[]","","","","","","","","","","","","","","",""
"","IG_Instructions","","html-keyboard-response","34","64376","0.0-11.0-2.0-1.0","","","","","","","","","","","","","","","","","","","","","1937","<p><b>Entraînement</b></p><p>Dans cette partie, deux lignes horizontales rouges vont apparaître l'une au dessus de l'autre.</p><p>Vous devez sélectionner quelle <b>ligne est la plus longue</b> aussi rapidement que vous pouvez sans faire d'erreurs.</p><p>Ne soyez pas distrait par les croix noires à la fin des lignes rouges!</p><p>Appuyez sur <b>la flèche HAUT ou BAS</b> pour indiquer où est la plus longue <b>ligne rouge</b>.</p><div style='float: center'><img src='https://realitybending.github.io/IllusionGame/v3//images/MullerLyer_Demo.png' height='200'></img><p><img src='https://realitybending.github.io/IllusionGame/v3//images/answer_updown_keyboard.PNG' height='100'></img></p><p class='small'Dans cet exemple, la réponse correcte est la <b>flèche HAUT</b>.</p></div><p>Êtes-vous prêt? <b>Appuyer sur la touche ENTRÉE pour démarrer</b></p>","enter","","","","","","","","","","","","","","","","","","","",""
"","IG_FixationCross","","html-keyboard-response","35","65701","0.0-11.0-2.0-2.0-0.0","","","","","","","","","","","","","","","","","","","","","null","<p style=""color: black; font-size: 80px; padding-left: 13%; padding-right: 41%; padding-top: 43%; padding-bottom: 31%"">+</p>","null","","","","","","822","","","","","","","","","","","","","",""
"","IG_Trial","","image-keyboard-response","36","66295","0.0-11.0-2.0-2.0-1.0","","","","","","","","","","","","","","","","","","","","","593","https://realitybending.github.io/IllusionGame/v3/stimuli/MullerLyer_23.0000_-0.7000.png","arrowdown","","","","","","","MullerLyer_23.0000_-0.7000.png","Practice","arrowdown","MullerLyer","23.000000000","-0.700000000","65701","<p style=""color: black; font-size: 80px; padding-left: 13%; padding-right: 41%; padding-top: 43%; padding-bottom: 31%"">+</p>","true","MullerLyer","function () {
            return jsPsych.timelineVariable(""Illusion_Strength"")
        }","function () {
            return jsPsych.timelineVariable(""Difference"")
        }","1","9"
"","IG_FixationCross","","html-keyboard-response","37","66908","0.0-11.0-2.0-2.0-0.1","","","","","","","","","","","","","","","","","","","","","null","<p style=""color: black; font-size: 80px; padding-left: 21%; padding-right: 45%; padding-top: 15%; padding-bottom: 33%"">+</p>","null","","","","","","611","","","","","","","","","","","","","",""
"","IG_Trial","","image-keyboard-response","38","67575","0.0-11.0-2.0-2.0-1.1","","","","","","","","","","","","","","","","","","","","","666","https://realitybending.github.io/IllusionGame/v3/stimuli/MullerLyer_-23.000_-0.7000.png","arrowup","","","","","","","MullerLyer_-23.000_-0.7000.png","Practice","arrowdown","MullerLyer","-23.00000000","-0.700000000","66908","<p style=""color: black; font-size: 80px; padding-left: 21%; padding-right: 45%; padding-top: 15%; padding-bottom: 33%"">+</p>","false","MullerLyer","function () {
            return jsPsych.timelineVariable(""Illusion_Strength"")
        }","function () {
            return jsPsych.timelineVariable(""Difference"")
        }","1","10"
"","IG_FixationCross","","html-keyboard-response","39","68417","0.0-11.0-2.0-2.0-0.2","","","","","","","","","","","","","","","","","","","","","null","<p style=""color: black; font-size: 80px; padding-left: 46%; padding-right: 43%; padding-top: 20%; padding-bottom: 31%"">+</p>","null","","","","","","841","","","","","","","","","","","","","",""
"","IG_Trial","","image-keyboard-response","40","69066","0.0-11.0-2.0-2.0-1.2","","","","","","","","","","","","","","","","","","","","","648","https://realitybending.github.io/IllusionGame/v3/stimuli/MullerLyer_-3.0000_-0.7000.png","arrowdown","","","","","","","MullerLyer_-3.0000_-0.7000.png","Practice","arrowdown","MullerLyer","-3.000000000","-0.700000000","68417","<p style=""color: black; font-size: 80px; padding-left: 46%; padding-right: 43%; padding-top: 20%; padding-bottom: 31%"">+</p>","true","MullerLyer","function () {
            return jsPsych.timelineVariable(""Illusion_Strength"")
        }","function () {
            return jsPsych.timelineVariable(""Difference"")
        }","1","11"
"","IG_FixationCross","","html-keyboard-response","41","69940","0.0-11.0-2.0-2.0-0.3","","","","","","","","","","","","","","","","","","","","","null","<p style=""color: black; font-size: 80px; padding-left: 50%; padding-right: 26%; padding-top: 44%; padding-bottom: 31%"">+</p>","null","","","","","","873","","","","","","","","","","","","","",""
"","IG_Trial","","image-keyboard-response","42","70507","0.0-11.0-2.0-2.0-1.3","","","","","","","","","","","","","","","","","","","","","566","https://realitybending.github.io/IllusionGame/v3/stimuli/MullerLyer_-23.000_0.70000.png","arrowup","","","","","","","MullerLyer_-23.000_0.70000.png","Practice","arrowup","MullerLyer","-23.00000000","0.7000000000","69940","<p style=""color: black; font-size: 80px; padding-left: 50%; padding-right: 26%; padding-top: 44%; padding-bottom: 31%"">+</p>","true","MullerLyer","function () {
            return jsPsych.timelineVariable(""Illusion_Strength"")
        }","function () {
            return jsPsych.timelineVariable(""Difference"")
        }","1","12"
"","IG_FixationCross","","html-keyboard-response","43","71131","0.0-11.0-2.0-2.0-0.4","","","","","","","","","","","","","","","","","","","","","null","<p style=""color: black; font-size: 80px; padding-left: 4%; padding-right: 42%; padding-top: 9%; padding-bottom: 9%"">+</p>","null","","","","","","622","","","","","","","","","","","","","",""
"","IG_Trial","","image-keyboard-response","44","71764","0.0-11.0-2.0-2.0-1.4","","","","","","","","","","","","","","","","","","","","","633","https://realitybending.github.io/IllusionGame/v3/stimuli/MullerLyer_3.00000_0.70000.png","arrowdown","","","","","","","MullerLyer_3.00000_0.70000.png","Practice","arrowup","MullerLyer","3.0000000000","0.7000000000","71131","<p style=""color: black; font-size: 80px; padding-left: 4%; padding-right: 42%; padding-top: 9%; padding-bottom: 9%"">+</p>","false","MullerLyer","function () {
            return jsPsych.timelineVariable(""Illusion_Strength"")
        }","function () {
            return jsPsych.timelineVariable(""Difference"")
        }","1","13"
"","IG_FixationCross","","html-keyboard-response","45","72622","0.0-11.0-2.0-2.0-0.5","","","","","","","","","","","","","","","","","","","","","null","<p style=""color: black; font-size: 80px; padding-left: 37%; padding-right: 31%; padding-top: 15%; padding-bottom: 34%"">+</p>","null","","","","","","856","","","","","","","","","","","","","",""
"","IG_Trial","","image-keyboard-response","46","73455","0.0-11.0-2.0-2.0-1.5","","","","","","","","","","","","","","","","","","","","","833","https://realitybending.github.io/IllusionGame/v3/stimuli/MullerLyer_-3.0000_0.70000.png","arrowup","","","","","","","MullerLyer_-3.0000_0.70000.png","Practice","arrowup","MullerLyer","-3.000000000","0.7000000000","72622","<p style=""color: black; font-size: 80px; padding-left: 37%; padding-right: 31%; padding-top: 15%; padding-bottom: 34%"">+</p>","true","MullerLyer","function () {
            return jsPsych.timelineVariable(""Illusion_Strength"")
        }","function () {
            return jsPsych.timelineVariable(""Difference"")
        }","1","14"
"","IG_FixationCross","","html-keyboard-response","47","74273","0.0-11.0-2.0-2.0-0.6","","","","","","","","","","","","","","","","","","","","","null","<p style=""color: black; font-size: 80px; padding-left: 6%; padding-right: 5%; padding-top: 28%; padding-bottom: 22%"">+</p>","null","","","","","","816","","","","","","","","","","","","","",""
"","IG_Trial","","image-keyboard-response","48","74767","0.0-11.0-2.0-2.0-1.6","","","","","","","","","","","","","","","","","","","","","493","https://realitybending.github.io/IllusionGame/v3/stimuli/MullerLyer_23.0000_0.70000.png","arrowdown","","","","","","","MullerLyer_23.0000_0.70000.png","Practice","arrowup","MullerLyer","23.000000000","0.7000000000","74273","<p style=""color: black; font-size: 80px; padding-left: 6%; padding-right: 5%; padding-top: 28%; padding-bottom: 22%"">+</p>","false","MullerLyer","function () {
            return jsPsych.timelineVariable(""Illusion_Strength"")
        }","function () {
            return jsPsych.timelineVariable(""Difference"")
        }","1","15"
"","IG_FixationCross","","html-keyboard-response","49","75739","0.0-11.0-2.0-2.0-0.7","","","","","","","","","","","","","","","","","","","","","null","<p style=""color: black; font-size: 80px; padding-left: 16%; padding-right: 6%; padding-top: 5%; padding-bottom: 5%"">+</p>","null","","","","","","970","","","","","","","","","","","","","",""
"","IG_Trial","","image-keyboard-response","50","76232","0.0-11.0-2.0-2.0-1.7","","","","","","","","","","","","","","","","","","","","","493","https://realitybending.github.io/IllusionGame/v3/stimuli/MullerLyer_3.00000_-0.7000.png","arrowup","","","","","","","MullerLyer_3.00000_-0.7000.png","Practice","arrowdown","MullerLyer","3.0000000000","-0.700000000","75739","<p style=""color: black; font-size: 80px; padding-left: 16%; padding-right: 6%; padding-top: 5%; padding-bottom: 5%"">+</p>","false","MullerLyer","function () {
            return jsPsych.timelineVariable(""Illusion_Strength"")
        }","function () {
            return jsPsych.timelineVariable(""Difference"")
        }","1","16"
"","IG_PracticeResults","","html-button-response","51","79428","0.0-11.0-2.0-3.0","","","","","","","","","","","","","","","","","","","","","3195","<p style='color:rgb(76,175,80);'>Réponses correctes:<b>50.00%</b></p><hr><p style='color:rgb(139, 195, 74);'>Temps de réaction:<b>615.63</b> ms.</p>","0","","","","","","","","","","","","","","","","","","","",""
"true","IG_Preload","","preload","52","80113","0.0-11.0-3.0-0.0","","","","","","","","","","","","","","","","","","","","","","","","","false","[]","[]","[]","","","","","","","","","","","","","","",""
"","IG_Instructions","","html-keyboard-response","53","81926","0.0-11.0-3.0-1.0","","","","","","","","","","","","","","","","","","","","","1812","<p><b>Entraînement</b></p><p>Dans cette partie, deux lignes rouges vont apparaître côte à côte à l'écran.</p><p>Vous devez sélectionner <b>quelle est la plus longue</b>, peu importe leur orientation, aussi vite que vous pouvez et sans faire d'erreurs.</p><p>Ne soyez pas distrait par l'orientation des lignes!</p><p>Appuyez sur <b>la flèche GAUCHE ou DROITE</b> pour indiquer quelle <b>ligne est la plus longue</b>.</p><div style='float: center'><img src='https://realitybending.github.io/IllusionGame/v3//images/VerticalHorizontal_Demo.png' height='200'></img><p><img src='https://realitybending.github.io/IllusionGame/v3//images/answer_leftright_keyboard.PNG' height='100'></img></p><p class='small'>Dans cet exemple, la réponse correcte est la <b>flèche GAUCHE</b>.</p></div><p>Êtes-vous prêt? <b>Appuyer sur la touche ENTRÉE pour démarrer</b></p>","enter","","","","","","","","","","","","","","","","","","","",""
"","IG_FixationCross","","html-keyboard-response","54","83032","0.0-11.0-3.0-2.0-0.0","","","","","","","","","","","","","","","","","","","","","null","<p style=""color: black; font-size: 80px; padding-left: 2%; padding-right: 47%; padding-top: 15%; padding-bottom: 28%"">+</p>","null","","","","","","603","","","","","","","","","","","","","",""
"","IG_Trial","","image-keyboard-response","55","83611","0.0-11.0-3.0-2.0-1.0","","","","","","","","","","","","","","","","","","","","","579","https://realitybending.github.io/IllusionGame/v3/stimuli/VerticalHorizontal_4.50000_0.90000.png","arrowright","","","","","","","VerticalHorizontal_4.50000_0.90000.png","Practice","arrowleft","VerticalHorizontal","4.5000000000","0.9000000000","83032","<p style=""color: black; font-size: 80px; padding-left: 2%; padding-right: 47%; padding-top: 15%; padding-bottom: 28%"">+</p>","false","VerticalHorizontal","function () {
            return jsPsych.timelineVariable(""Illusion_Strength"")
        }","function () {
            return jsPsych.timelineVariable(""Difference"")
        }","1","17"
"","IG_FixationCross","","html-keyboard-response","56","84233","0.0-11.0-3.0-2.0-0.1","","","","","","","","","","","","","","","","","","","","","null","<p style=""color: black; font-size: 80px; padding-left: 31%; padding-right: 50%; padding-top: 8%; padding-bottom: 35%"">+</p>","null","","","","","","620","","","","","","","","","","","","","",""
"","IG_Trial","","image-keyboard-response","57","84871","0.0-11.0-3.0-2.0-1.1","","","","","","","","","","","","","","","","","","","","","637","https://realitybending.github.io/IllusionGame/v3/stimuli/VerticalHorizontal_33.0000_-0.9000.png","arrowright","","","","","","","VerticalHorizontal_33.0000_-0.9000.png","Practice","arrowright","VerticalHorizontal","33.000000000","-0.900000000","84233","<p style=""color: black; font-size: 80px; padding-left: 31%; padding-right: 50%; padding-top: 8%; padding-bottom: 35%"">+</p>","true","VerticalHorizontal","function () {
            return jsPsych.timelineVariable(""Illusion_Strength"")
        }","function () {
            return jsPsych.timelineVariable(""Difference"")
        }","1","18"
"","IG_FixationCross","","html-keyboard-response","58","85948","0.0-11.0-3.0-2.0-0.2","","","","","","","","","","","","","","","","","","","","","null","<p style=""color: black; font-size: 80px; padding-left: 6%; padding-right: 36%; padding-top: 39%; padding-bottom: 39%"">+</p>","null","","","","","","1074","","","","","","","","","","","","","",""
"","IG_Trial","","image-keyboard-response","59","86579","0.0-11.0-3.0-2.0-1.2","","","","","","","","","","","","","","","","","","","","","630","https://realitybending.github.io/IllusionGame/v3/stimuli/VerticalHorizontal_4.50000_-0.9000.png","arrowright","","","","","","","VerticalHorizontal_4.50000_-0.9000.png","Practice","arrowright","VerticalHorizontal","4.5000000000","-0.900000000","85948","<p style=""color: black; font-size: 80px; padding-left: 6%; padding-right: 36%; padding-top: 39%; padding-bottom: 39%"">+</p>","true","VerticalHorizontal","function () {
            return jsPsych.timelineVariable(""Illusion_Strength"")
        }","function () {
            return jsPsych.timelineVariable(""Difference"")
        }","1","19"
"","IG_FixationCross","","html-keyboard-response","60","87319","0.0-11.0-3.0-2.0-0.3","","","","","","","","","","","","","","","","","","","","","null","<p style=""color: black; font-size: 80px; padding-left: 30%; padding-right: 34%; padding-top: 5%; padding-bottom: 8%"">+</p>","null","","","","","","738","","","","","","","","","","","","","",""
"","IG_Trial","","image-keyboard-response","61","88272","0.0-11.0-3.0-2.0-1.3","","","","","","","","","","","","","","","","","","","","","953","https://realitybending.github.io/IllusionGame/v3/stimuli/VerticalHorizontal_-4.5000_0.90000.png","arrowright","","","","","","","VerticalHorizontal_-4.5000_0.90000.png","Practice","arrowleft","VerticalHorizontal","-4.500000000","0.9000000000","87319","<p style=""color: black; font-size: 80px; padding-left: 30%; padding-right: 34%; padding-top: 5%; padding-bottom: 8%"">+</p>","false","VerticalHorizontal","function () {
            return jsPsych.timelineVariable(""Illusion_Strength"")
        }","function () {
            return jsPsych.timelineVariable(""Difference"")
        }","1","20"
"","IG_FixationCross","","html-keyboard-response","62","88966","0.0-11.0-3.0-2.0-0.4","","","","","","","","","","","","","","","","","","","","","null","<p style=""color: black; font-size: 80px; padding-left: 5%; padding-right: 6%; padding-top: 27%; padding-bottom: 38%"">+</p>","null","","","","","","692","","","","","","","","","","","","","",""
"","IG_Trial","","image-keyboard-response","63","89810","0.0-11.0-3.0-2.0-1.4","","","","","","","","","","","","","","","","","","","","","843","https://realitybending.github.io/IllusionGame/v3/stimuli/VerticalHorizontal_-4.5000_-0.9000.png","arrowright","","","","","","","VerticalHorizontal_-4.5000_-0.9000.png","Practice","arrowright","VerticalHorizontal","-4.500000000","-0.900000000","88966","<p style=""color: black; font-size: 80px; padding-left: 5%; padding-right: 6%; padding-top: 27%; padding-bottom: 38%"">+</p>","true","VerticalHorizontal","function () {
            return jsPsych.timelineVariable(""Illusion_Strength"")
        }","function () {
            return jsPsych.timelineVariable(""Difference"")
        }","1","21"
"","IG_FixationCross","","html-keyboard-response","64","90750","0.0-11.0-3.0-2.0-0.5","","","","","","","","","","","","","","","","","","","","","null","<p style=""color: black; font-size: 80px; padding-left: 8%; padding-right: 9%; padding-top: 1%; padding-bottom: 15%"">+</p>","null","","","","","","938","","","","","","","","","","","","","",""
"","IG_Trial","","image-keyboard-response","65","91395","0.0-11.0-3.0-2.0-1.5","","","","","","","","","","","","","","","","","","","","","644","https://realitybending.github.io/IllusionGame/v3/stimuli/VerticalHorizontal_-33.000_0.90000.png","arrowleft","","","","","","","VerticalHorizontal_-33.000_0.90000.png","Practice","arrowleft","VerticalHorizontal","-33.00000000","0.9000000000","90750","<p style=""color: black; font-size: 80px; padding-left: 8%; padding-right: 9%; padding-top: 1%; padding-bottom: 15%"">+</p>","true","VerticalHorizontal","function () {
            return jsPsych.timelineVariable(""Illusion_Strength"")
        }","function () {
            return jsPsych.timelineVariable(""Difference"")
        }","1","22"
"","IG_FixationCross","","html-keyboard-response","66","92370","0.0-11.0-3.0-2.0-0.6","","","","","","","","","","","","","","","","","","","","","null","<p style=""color: black; font-size: 80px; padding-left: 49%; padding-right: 6%; padding-top: 30%; padding-bottom: 24%"">+</p>","null","","","","","","973","","","","","","","","","","","","","",""
"","IG_Trial","","image-keyboard-response","67","92993","0.0-11.0-3.0-2.0-1.6","","","","","","","","","","","","","","","","","","","","","622","https://realitybending.github.io/IllusionGame/v3/stimuli/VerticalHorizontal_-33.000_-0.9000.png","arrowleft","","","","","","","VerticalHorizontal_-33.000_-0.9000.png","Practice","arrowright","VerticalHorizontal","-33.00000000","-0.900000000","92370","<p style=""color: black; font-size: 80px; padding-left: 49%; padding-right: 6%; padding-top: 30%; padding-bottom: 24%"">+</p>","false","VerticalHorizontal","function () {
            return jsPsych.timelineVariable(""Illusion_Strength"")
        }","function () {
            return jsPsych.timelineVariable(""Difference"")
        }","1","23"
"","IG_FixationCross","","html-keyboard-response","68","93967","0.0-11.0-3.0-2.0-0.7","","","","","","","","","","","","","","","","","","","","","null","<p style=""color: black; font-size: 80px; padding-left: 12%; padding-right: 50%; padding-top: 36%; padding-bottom: 22%"">+</p>","null","","","","","","972","","","","","","","","","","","","","",""
"","IG_Trial","","image-keyboard-response","69","94434","0.0-11.0-3.0-2.0-1.7","","","","","","","","","","","","","","","","","","","","","466","https://realitybending.github.io/IllusionGame/v3/stimuli/VerticalHorizontal_33.0000_0.90000.png","arrowleft","","","","","","","VerticalHorizontal_33.0000_0.90000.png","Practice","arrowleft","VerticalHorizontal","33.000000000","0.9000000000","93967","<p style=""color: black; font-size: 80px; padding-left: 12%; padding-right: 50%; padding-top: 36%; padding-bottom: 22%"">+</p>","true","VerticalHorizontal","function () {
            return jsPsych.timelineVariable(""Illusion_Strength"")
        }","function () {
            return jsPsych.timelineVariable(""Difference"")
        }","1","24"
"","IG_PracticeResults","","html-button-response","70","97698","0.0-11.0-3.0-3.0","","","","","","","","","","","","","","","","","","","","","3263","<p style='color:rgb(76,175,80);'>Réponses correctes:<b>62.50%</b></p><hr><p style='color:rgb(139, 195, 74);'>Temps de réaction:<b>671.75</b> ms.</p>","0","","","","","","","","","","","","","","","","","","","",""
"","IG_PracticeDebrief","","html-button-response","71","101084","0.0-11.0-4.0","","","","","","","","","","","","","","","","","","","","","2884","<h1>Entraînement terminé</h1><p>Dans la phase suivante, il va y avoir plus d'essais, dont certains pourraient être plus difficiles.<br>De plus, après chaque bloc d'illusion, un <b>score</b> sera calculé sur la base de votre vitesse (le temps que vous avez mis à répondre) et de votre précision (votre nombre d'erreurs).</p><p><i>Essayez de maintenir un score élevé!</i></p><br><p>Notez que ça peut être <i>vraiment</i> difficile parfois, de manière à ce que vous deviez vous fier à votre <b>intuition</b> et vos ressentis pour répondre aussi vite que possible sans faire d'erreur.</p><p>Chaque bloc d'illusion sera répété deux fois (de manière à ce que vous puissiez améliorer votre score), mais l'ordre des blocs est aléatoire.</p><p>Souvenez-vous, vous devez être aussi <b>rapide</b> et <b>précis</b> que possible. Bonne chance!</p><br>","0","","","","","","","","","","","","","","","","","","","",""
"true","IG_Preload","","preload","72","101600","0.0-12.0-0.0-0.0","","","","","","","","","","","","","","","","","","","","","","","","","false","[]","[]","[]","","","","","","","","","","","","","","",""
"","IG_Instructions","","html-keyboard-response","73","102941","0.0-12.0-0.0-1.0","","","","","","","","","","","","","","","","","","","","","1340","<p>Dans cette partie, deux lignes horizontales rouges vont apparaître l'une au dessus de l'autre.</p><p>Vous devez sélectionner quelle <b>ligne est la plus longue</b> aussi rapidement que vous pouvez sans faire d'erreurs.</p><p>Ne soyez pas distrait par les croix noires à la fin des lignes rouges!</p><p>Appuyez sur <b>la flèche HAUT ou BAS</b> pour indiquer où est la plus longue <b>ligne rouge</b>.</p><div style='float: center'><img src='https://realitybending.github.io/IllusionGame/v3//images/MullerLyer_Demo.png' height='200'></img><p><img src='https://realitybending.github.io/IllusionGame/v3//images/answer_updown_keyboard.PNG' height='100'></img></p><p class='small'Dans cet exemple, la réponse correcte est la <b>flèche HAUT</b>.</p></div><p>Êtes-vous prêt? <b>Appuyer sur la touche ENTRÉE pour démarrer</b></p>","enter","","","","","","","","","","","","","","","","","","","",""
"","IG_FixationCross","","html-keyboard-response","74","104390","0.0-12.0-0.0-2.0-0.0","","","","","","","","","","","","","","","","","","","","","null","<p style=""color: black; font-size: 80px; padding-left: 46%; padding-right: 4%; padding-top: 5%; padding-bottom: 32%"">+</p>","null","","","","","","945","","","","","","","","","","","","","",""
"","IG_Trial","","image-keyboard-response","75","105121","0.0-12.0-0.0-2.0-1.0","","","","","","","","","","","","","","","","","","","","","730","https://realitybending.github.io/IllusionGame/v3/stimuli/MullerLyer_3.00000_-0.08716.png","arrowup","","","","","","","MullerLyer_3.00000_-0.08716.png","A","arrowdown","MullerLyer","3.0000000000","-0.087160000","104390","<p style=""color: black; font-size: 80px; padding-left: 46%; padding-right: 4%; padding-top: 5%; padding-bottom: 32%"">+</p>","false","MullerLyer","function () {
            return jsPsych.timelineVariable(""Illusion_Strength"")
        }","function () {
            return jsPsych.timelineVariable(""Difference"")
        }","1","1"
"","IG_FixationCross","","html-keyboard-response","76","105840","0.0-12.0-0.0-2.0-0.1","","","","","","","","","","","","","","","","","","","","","null","<p style=""color: black; font-size: 80px; padding-left: 16%; padding-right: 10%; padding-top: 3%; padding-bottom: 49%"">+</p>","null","","","","","","717","","","","","","","","","","","","","",""
"","IG_Trial","","image-keyboard-response","77","106286","0.0-12.0-0.0-2.0-1.1","","","","","","","","","","","","","","","","","","","","","446","https://realitybending.github.io/IllusionGame/v3/stimuli/MullerLyer_3.00000_-0.4500.png","arrowup","","","","","","","MullerLyer_3.00000_-0.4500.png","A","arrowdown","MullerLyer","3.0000000000","-0.450000000","105840","<p style=""color: black; font-size: 80px; padding-left: 16%; padding-right: 10%; padding-top: 3%; padding-bottom: 49%"">+</p>","false","MullerLyer","function () {
            return jsPsych.timelineVariable(""Illusion_Strength"")
        }","function () {
            return jsPsych.timelineVariable(""Difference"")
        }","1","2"
"","IG_FixationCross","","html-keyboard-response","78","107021","0.0-12.0-0.0-2.0-0.2","","","","","","","","","","","","","","","","","","","","","null","<p style=""color: black; font-size: 80px; padding-left: 8%; padding-right: 47%; padding-top: 45%; padding-bottom: 41%"">+</p>","null","","","","","","733","","","","","","","","","","","","","",""
"","IG_Trial","","image-keyboard-response","79","107600","0.0-12.0-0.0-2.0-1.2","","","","","","","","","","","","","","","","","","","","","578","https://realitybending.github.io/IllusionGame/v3/stimuli/MullerLyer_-21.000_-0.4500.png","arrowdown","","","","","","","MullerLyer_-21.000_-0.4500.png","A","arrowdown","MullerLyer","-21.00000000","-0.450000000","107021","<p style=""color: black; font-size: 80px; padding-left: 8%; padding-right: 47%; padding-top: 45%; padding-bottom: 41%"">+</p>","true","MullerLyer","function () {
            return jsPsych.timelineVariable(""Illusion_Strength"")
        }","function () {
            return jsPsych.timelineVariable(""Difference"")
        }","1","3"
"","IG_FixationCross","","html-keyboard-response","80","108457","0.0-12.0-0.0-2.0-0.3","","","","","","","","","","","","","","","","","","","","","null","<p style=""color: black; font-size: 80px; padding-left: 21%; padding-right: 25%; padding-top: 14%; padding-bottom: 18%"">+</p>","null","","","","","","856","","","","","","","","","","","","","",""
"","IG_Trial","","image-keyboard-response","81","108865","0.0-12.0-0.0-2.0-1.3","","","","","","","","","","","","","","","","","","","","","407","https://realitybending.github.io/IllusionGame/v3/stimuli/MullerLyer_9.00000_-0.18509.png","arrowdown","","","","","","","MullerLyer_9.00000_-0.18509.png","A","arrowdown","MullerLyer","9.0000000000","-0.185090000","108457","<p style=""color: black; font-size: 80px; padding-left: 21%; padding-right: 25%; padding-top: 14%; padding-bottom: 18%"">+</p>","true","MullerLyer","function () {
            return jsPsych.timelineVariable(""Illusion_Strength"")
        }","function () {
            return jsPsych.timelineVariable(""Difference"")
        }","1","4"
"","IG_FixationCross","","html-keyboard-response","82","109512","0.0-12.0-0.0-2.0-0.4","","","","","","","","","","","","","","","","","","","","","null","<p style=""color: black; font-size: 80px; padding-left: 32%; padding-right: 31%; padding-top: 31%; padding-bottom: 17%"">+</p>","null","","","","","","645","","","","","","","","","","","","","",""
"","IG_Trial","","image-keyboard-response","83","110221","0.0-12.0-0.0-2.0-1.4","","","","","","","","","","","","","","","","","","","","","708","https://realitybending.github.io/IllusionGame/v3/stimuli/MullerLyer_21.0000_-0.4500.png","arrowup","","","","","","","MullerLyer_21.0000_-0.4500.png","A","arrowdown","MullerLyer","21.000000000","-0.450000000","109512","<p style=""color: black; font-size: 80px; padding-left: 32%; padding-right: 31%; padding-top: 31%; padding-bottom: 17%"">+</p>","false","MullerLyer","function () {
            return jsPsych.timelineVariable(""Illusion_Strength"")
        }","function () {
            return jsPsych.timelineVariable(""Difference"")
        }","1","5"
"","IG_FixationCross","","html-keyboard-response","84","111087","0.0-12.0-0.0-2.0-0.5","","","","","","","","","","","","","","","","","","","","","null","<p style=""color: black; font-size: 80px; padding-left: 30%; padding-right: 0%; padding-top: 5%; padding-bottom: 38%"">+</p>","null","","","","","","865","","","","","","","","","","","","","",""
"","IG_Trial","","image-keyboard-response","85","111666","0.0-12.0-0.0-2.0-1.5","","","","","","","","","","","","","","","","","","","","","578","https://realitybending.github.io/IllusionGame/v3/stimuli/MullerLyer_-9.0000_-0.08716.png","arrowup","","","","","","","MullerLyer_-9.0000_-0.08716.png","A","arrowdown","MullerLyer","-9.000000000","-0.087160000","111087","<p style=""color: black; font-size: 80px; padding-left: 30%; padding-right: 0%; padding-top: 5%; padding-bottom: 38%"">+</p>","false","MullerLyer","function () {
            return jsPsych.timelineVariable(""Illusion_Strength"")
        }","function () {
            return jsPsych.timelineVariable(""Difference"")
        }","1","6"
"","IG_FixationCross","","html-keyboard-response","86","112745","0.0-12.0-0.0-2.0-0.6","","","","","","","","","","","","","","","","","","","","","null","<p style=""color: black; font-size: 80px; padding-left: 21%; padding-right: 30%; padding-top: 39%; padding-bottom: 33%"">+</p>","null","","","","","","1077","","","","","","","","","","","","","",""
"","IG_Trial","","image-keyboard-response","87","113266","0.0-12.0-0.0-2.0-1.6","","","","","","","","","","","","","","","","","","","","","521","https://realitybending.github.io/IllusionGame/v3/stimuli/MullerLyer_-15.000_0.18509.png","arrowup","","","","","","","MullerLyer_-15.000_0.18509.png","A","arrowup","MullerLyer","-15.00000000","0.1850900000","112745","<p style=""color: black; font-size: 80px; padding-left: 21%; padding-right: 30%; padding-top: 39%; padding-bottom: 33%"">+</p>","true","MullerLyer","function () {
            return jsPsych.timelineVariable(""Illusion_Strength"")
        }","function () {
            return jsPsych.timelineVariable(""Difference"")
        }","1","7"
"","IG_FixationCross","","html-keyboard-response","88","114004","0.0-12.0-0.0-2.0-0.7","","","","","","","","","","","","","","","","","","","","","null","<p style=""color: black; font-size: 80px; padding-left: 42%; padding-right: 30%; padding-top: 1%; padding-bottom: 37%"">+</p>","null","","","","","","736","","","","","","","","","","","","","",""
"","IG_Trial","","image-keyboard-response","89","114480","0.0-12.0-0.0-2.0-1.7","","","","","","","","","","","","","","","","","","","","","475","https://realitybending.github.io/IllusionGame/v3/stimuli/MullerLyer_21.0000_0.30447.png","arrowdown","","","","","","","MullerLyer_21.0000_0.30447.png","A","arrowup","MullerLyer","21.000000000","0.3044700000","114004","<p style=""color: black; font-size: 80px; padding-left: 42%; padding-right: 30%; padding-top: 1%; padding-bottom: 37%"">+</p>","false","MullerLyer","function () {
            return jsPsych.timelineVariable(""Illusion_Strength"")
        }","function () {
            return jsPsych.timelineVariable(""Difference"")
        }","1","8"
"","IG_FixationCross","","html-keyboard-response","90","115163","0.0-12.0-0.0-2.0-0.8","","","","","","","","","","","","","","","","","","","","","null","<p style=""color: black; font-size: 80px; padding-left: 25%; padding-right: 32%; padding-top: 33%; padding-bottom: 28%"">+</p>","null","","","","","","680","","","","","","","","","","","","","",""
"","IG_Trial","","image-keyboard-response","91","116014","0.0-12.0-0.0-2.0-1.8","","","","","","","","","","","","","","","","","","","","","851","https://realitybending.github.io/IllusionGame/v3/stimuli/MullerLyer_-27.000_-0.08716.png","arrowdown","","","","","","","MullerLyer_-27.000_-0.08716.png","A","arrowdown","MullerLyer","-27.00000000","-0.087160000","115163","<p style=""color: black; font-size: 80px; padding-left: 25%; padding-right: 32%; padding-top: 33%; padding-bottom: 28%"">+</p>","true","MullerLyer","function () {
            return jsPsych.timelineVariable(""Illusion_Strength"")
        }","function () {
            return jsPsych.timelineVariable(""Difference"")
        }","1","9"
"","IG_FixationCross","","html-keyboard-response","92","117038","0.0-12.0-0.0-2.0-0.9","","","","","","","","","","","","","","","","","","","","","null","<p style=""color: black; font-size: 80px; padding-left: 31%; padding-right: 37%; padding-top: 31%; padding-bottom: 28%"">+</p>","null","","","","","","1022","","","","","","","","","","","","","",""
"","IG_Trial","","image-keyboard-response","93","117507","0.0-12.0-0.0-2.0-1.9","","","","","","","","","","","","","","","","","","","","","468","https://realitybending.github.io/IllusionGame/v3/stimuli/MullerLyer_21.0000_-0.18509.png","arrowdown","","","","","","","MullerLyer_21.0000_-0.18509.png","A","arrowdown","MullerLyer","21.000000000","-0.185090000","117038","<p style=""color: black; font-size: 80px; padding-left: 31%; padding-right: 37%; padding-top: 31%; padding-bottom: 28%"">+</p>","true","MullerLyer","function () {
            return jsPsych.timelineVariable(""Illusion_Strength"")
        }","function () {
            return jsPsych.timelineVariable(""Difference"")
        }","1","10"
"","IG_FixationCross","","html-keyboard-response","94","118371","0.0-12.0-0.0-2.0-0.10","","","","","","","","","","","","","","","","","","","","","null","<p style=""color: black; font-size: 80px; padding-left: 37%; padding-right: 42%; padding-top: 42%; padding-bottom: 12%"">+</p>","null","","","","","","862","","","","","","","","","","","","","",""
"","IG_Trial","","image-keyboard-response","95","118917","0.0-12.0-0.0-2.0-1.10","","","","","","","","","","","","","","","","","","","","","545","https://realitybending.github.io/IllusionGame/v3/stimuli/MullerLyer_-27.000_0.30447.png","arrowdown","","","","","","","MullerLyer_-27.000_0.30447.png","A","arrowup","MullerLyer","-27.00000000","0.3044700000","118371","<p style=""color: black; font-size: 80px; padding-left: 37%; padding-right: 42%; padding-top: 42%; padding-bottom: 12%"">+</p>","false","MullerLyer","function () {
            return jsPsych.timelineVariable(""Illusion_Strength"")
        }","function () {
            return jsPsych.timelineVariable(""Difference"")
        }","1","11"
"","IG_FixationCross","","html-keyboard-response","96","119714","0.0-12.0-0.0-2.0-0.11","","","","","","","","","","","","","","","","","","","","","null","<p style=""color: black; font-size: 80px; padding-left: 7%; padding-right: 2%; padding-top: 38%; padding-bottom: 36%"">+</p>","null","","","","","","795","","","","","","","","","","","","","",""
"","IG_Trial","","image-keyboard-response","97","120271","0.0-12.0-0.0-2.0-1.11","","","","","","","","","","","","","","","","","","","","","556","https://realitybending.github.io/IllusionGame/v3/stimuli/MullerLyer_3.00000_-0.18509.png","arrowdown","","","","","","","MullerLyer_3.00000_-0.18509.png","A","arrowdown","MullerLyer","3.0000000000","-0.185090000","119714","<p style=""color: black; font-size: 80px; padding-left: 7%; padding-right: 2%; padding-top: 38%; padding-bottom: 36%"">+</p>","true","MullerLyer","function () {
            return jsPsych.timelineVariable(""Illusion_Strength"")
        }","function () {
            return jsPsych.timelineVariable(""Difference"")
        }","1","12"
"","IG_FixationCross","","html-keyboard-response","98","120936","0.0-12.0-0.0-2.0-0.12","","","","","","","","","","","","","","","","","","","","","null","<p style=""color: black; font-size: 80px; padding-left: 9%; padding-right: 2%; padding-top: 24%; padding-bottom: 32%"">+</p>","null","","","","","","663","","","","","","","","","","","","","",""
"","IG_Trial","","image-keyboard-response","99","121488","0.0-12.0-0.0-2.0-1.12","","","","","","","","","","","","","","","","","","","","","552","https://realitybending.github.io/IllusionGame/v3/stimuli/MullerLyer_-15.000_-0.08716.png","arrowup","","","","","","","MullerLyer_-15.000_-0.08716.png","A","arrowdown","MullerLyer","-15.00000000","-0.087160000","120936","<p style=""color: black; font-size: 80px; padding-left: 9%; padding-right: 2%; padding-top: 24%; padding-bottom: 32%"">+</p>","false","MullerLyer","function () {
            return jsPsych.timelineVariable(""Illusion_Strength"")
        }","function () {
            return jsPsych.timelineVariable(""Difference"")
        }","1","13"
"","IG_FixationCross","","html-keyboard-response","100","122321","0.0-12.0-0.0-2.0-0.13","","","","","","","","","","","","","","","","","","","","","null","<p style=""color: black; font-size: 80px; padding-left: 17%; padding-right: 23%; padding-top: 27%; padding-bottom: 32%"">+</p>","null","","","","","","830","","","","","","","","","","","","","",""
"","IG_Trial","","image-keyboard-response","101","122912","0.0-12.0-0.0-2.0-1.13","","","","","","","","","","","","","","","","","","","","","591","https://realitybending.github.io/IllusionGame/v3/stimuli/MullerLyer_-3.0000_0.45000.png","arrowdown","","","","","","","MullerLyer_-3.0000_0.45000.png","A","arrowup","MullerLyer","-3.000000000","0.4500000000","122321","<p style=""color: black; font-size: 80px; padding-left: 17%; padding-right: 23%; padding-top: 27%; padding-bottom: 32%"">+</p>","false","MullerLyer","function () {
            return jsPsych.timelineVariable(""Illusion_Strength"")
        }","function () {
            return jsPsych.timelineVariable(""Difference"")
        }","1","14"
"","IG_FixationCross","","html-keyboard-response","102","123680","0.0-12.0-0.0-2.0-0.14","","","","","","","","","","","","","","","","","","","","","null","<p style=""color: black; font-size: 80px; padding-left: 48%; padding-right: 47%; padding-top: 7%; padding-bottom: 31%"">+</p>","null","","","","","","765","","","","","","","","","","","","","",""
"","IG_Trial","","image-keyboard-response","103","124510","0.0-12.0-0.0-2.0-1.14","","","","","","","","","","","","","","","","","","","","","830","https://realitybending.github.io/IllusionGame/v3/stimuli/MullerLyer_3.00000_0.08716.png","arrowup","","","","","","","MullerLyer_3.00000_0.08716.png","A","arrowup","MullerLyer","3.0000000000","0.0871600000","123680","<p style=""color: black; font-size: 80px; padding-left: 48%; padding-right: 47%; padding-top: 7%; padding-bottom: 31%"">+</p>","true","MullerLyer","function () {
            return jsPsych.timelineVariable(""Illusion_Strength"")
        }","function () {
            return jsPsych.timelineVariable(""Difference"")
        }","1","15"
"","IG_FixationCross","","html-keyboard-response","104","125208","0.0-12.0-0.0-2.0-0.15","","","","","","","","","","","","","","","","","","","","","null","<p style=""color: black; font-size: 80px; padding-left: 1%; padding-right: 0%; padding-top: 12%; padding-bottom: 22%"">+</p>","null","","","","","","697","","","","","","","","","","","","","",""
"","IG_Trial","","image-keyboard-response","105","126058","0.0-12.0-0.0-2.0-1.15","","","","","","","","","","","","","","","","","","","","","849","https://realitybending.github.io/IllusionGame/v3/stimuli/MullerLyer_-27.000_-0.4500.png","arrowdown","","","","","","","MullerLyer_-27.000_-0.4500.png","A","arrowdown","MullerLyer","-27.00000000","-0.450000000","125208","<p style=""color: black; font-size: 80px; padding-left: 1%; padding-right: 0%; padding-top: 12%; padding-bottom: 22%"">+</p>","true","MullerLyer","function () {
            return jsPsych.timelineVariable(""Illusion_Strength"")
        }","function () {
            return jsPsych.timelineVariable(""Difference"")
        }","1","16"
"","IG_FixationCross","","html-keyboard-response","106","126826","0.0-12.0-0.0-2.0-0.16","","","","","","","","","","","","","","","","","","","","","null","<p style=""color: black; font-size: 80px; padding-left: 3%; padding-right: 20%; padding-top: 30%; padding-bottom: 25%"">+</p>","null","","","","","","767","","","","","","","","","","","","","",""
"","IG_Trial","","image-keyboard-response","107","127406","0.0-12.0-0.0-2.0-1.16","","","","","","","","","","","","","","","","","","","","","579","https://realitybending.github.io/IllusionGame/v3/stimuli/MullerLyer_27.0000_-0.18509.png","arrowdown","","","","","","","MullerLyer_27.0000_-0.18509.png","A","arrowdown","MullerLyer","27.000000000","-0.185090000","126826","<p style=""color: black; font-size: 80px; padding-left: 3%; padding-right: 20%; padding-top: 30%; padding-bottom: 25%"">+</p>","true","MullerLyer","function () {
            return jsPsych.timelineVariable(""Illusion_Strength"")
        }","function () {
            return jsPsych.timelineVariable(""Difference"")
        }","1","17"
"","IG_FixationCross","","html-keyboard-response","108","128157","0.0-12.0-0.0-2.0-0.17","","","","","","","","","","","","","","","","","","","","","null","<p style=""color: black; font-size: 80px; padding-left: 43%; padding-right: 15%; padding-top: 7%; padding-bottom: 4%"">+</p>","null","","","","","","749","","","","","","","","","","","","","",""
"","IG_Trial","","image-keyboard-response","109","128655","0.0-12.0-0.0-2.0-1.17","","","","","","","","","","","","","","","","","","","","","498","https://realitybending.github.io/IllusionGame/v3/stimuli/MullerLyer_-3.0000_0.08716.png","arrowup","","","","","","","MullerLyer_-3.0000_0.08716.png","A","arrowup","MullerLyer","-3.000000000","0.0871600000","128157","<p style=""color: black; font-size: 80px; padding-left: 43%; padding-right: 15%; padding-top: 7%; padding-bottom: 4%"">+</p>","true","MullerLyer","function () {
            return jsPsych.timelineVariable(""Illusion_Strength"")
        }","function () {
            return jsPsych.timelineVariable(""Difference"")
        }","1","18"
"","IG_FixationCross","","html-keyboard-response","110","129432","0.0-12.0-0.0-2.0-0.18","","","","","","","","","","","","","","","","","","","","","null","<p style=""color: black; font-size: 80px; padding-left: 33%; padding-right: 40%; padding-top: 22%; padding-bottom: 7%"">+</p>","null","","","","","","775","","","","","","","","","","","","","",""
"","IG_Trial","","image-keyboard-response","111","129987","0.0-12.0-0.0-2.0-1.18","","","","","","","","","","","","","","","","","","","","","554","https://realitybending.github.io/IllusionGame/v3/stimuli/MullerLyer_27.0000_0.18509.png","arrowdown","","","","","","","MullerLyer_27.0000_0.18509.png","A","arrowup","MullerLyer","27.000000000","0.1850900000","129432","<p style=""color: black; font-size: 80px; padding-left: 33%; padding-right: 40%; padding-top: 22%; padding-bottom: 7%"">+</p>","false","MullerLyer","function () {
            return jsPsych.timelineVariable(""Illusion_Strength"")
        }","function () {
            return jsPsych.timelineVariable(""Difference"")
        }","1","19"
"","IG_FixationCross","","html-keyboard-response","112","130895","0.0-12.0-0.0-2.0-0.19","","","","","","","","","","","","","","","","","","","","","null","<p style=""color: black; font-size: 80px; padding-left: 42%; padding-right: 12%; padding-top: 38%; padding-bottom: 9%"">+</p>","null","","","","","","906","","","","","","","","","","","","","",""
"","IG_Trial","","image-keyboard-response","113","131684","0.0-12.0-0.0-2.0-1.19","","","","","","","","","","","","","","","","","","","","","789","https://realitybending.github.io/IllusionGame/v3/stimuli/MullerLyer_21.0000_0.18509.png","arrowdown","","","","","","","MullerLyer_21.0000_0.18509.png","A","arrowup","MullerLyer","21.000000000","0.1850900000","130895","<p style=""color: black; font-size: 80px; padding-left: 42%; padding-right: 12%; padding-top: 38%; padding-bottom: 9%"">+</p>","false","MullerLyer","function () {
            return jsPsych.timelineVariable(""Illusion_Strength"")
        }","function () {
            return jsPsych.timelineVariable(""Difference"")
        }","1","20"
"","IG_FixationCross","","html-keyboard-response","114","132702","0.0-12.0-0.0-2.0-0.20","","","","","","","","","","","","","","","","","","","","","null","<p style=""color: black; font-size: 80px; padding-left: 8%; padding-right: 4%; padding-top: 17%; padding-bottom: 5%"">+</p>","null","","","","","","1017","","","","","","","","","","","","","",""
"","IG_Trial","","image-keyboard-response","115","133351","0.0-12.0-0.0-2.0-1.20","","","","","","","","","","","","","","","","","","","","","648","https://realitybending.github.io/IllusionGame/v3/stimuli/MullerLyer_21.0000_-0.08716.png","arrowdown","","","","","","","MullerLyer_21.0000_-0.08716.png","A","arrowdown","MullerLyer","21.000000000","-0.087160000","132702","<p style=""color: black; font-size: 80px; padding-left: 8%; padding-right: 4%; padding-top: 17%; padding-bottom: 5%"">+</p>","true","MullerLyer","function () {
            return jsPsych.timelineVariable(""Illusion_Strength"")
        }","function () {
            return jsPsych.timelineVariable(""Difference"")
        }","1","21"
"","IG_FixationCross","","html-keyboard-response","116","134242","0.0-12.0-0.0-2.0-0.21","","","","","","","","","","","","","","","","","","","","","null","<p style=""color: black; font-size: 80px; padding-left: 47%; padding-right: 12%; padding-top: 42%; padding-bottom: 18%"">+</p>","null","","","","","","889","","","","","","","","","","","","","",""
"","IG_Trial","","image-keyboard-response","117","135006","0.0-12.0-0.0-2.0-1.21","","","","","","","","","","","","","","","","","","","","","763","https://realitybending.github.io/IllusionGame/v3/stimuli/MullerLyer_-15.000_-0.4500.png","arrowup","","","","","","","MullerLyer_-15.000_-0.4500.png","A","arrowdown","MullerLyer","-15.00000000","-0.450000000","134242","<p style=""color: black; font-size: 80px; padding-left: 47%; padding-right: 12%; padding-top: 42%; padding-bottom: 18%"">+</p>","false","MullerLyer","function () {
            return jsPsych.timelineVariable(""Illusion_Strength"")
        }","function () {
            return jsPsych.timelineVariable(""Difference"")
        }","1","22"
"","IG_FixationCross","","html-keyboard-response","118","136098","0.0-12.0-0.0-2.0-0.22","","","","","","","","","","","","","","","","","","","","","null","<p style=""color: black; font-size: 80px; padding-left: 14%; padding-right: 14%; padding-top: 46%; padding-bottom: 22%"">+</p>","null","","","","","","1090","","","","","","","","","","","","","",""
"","IG_Trial","","image-keyboard-response","119","136798","0.0-12.0-0.0-2.0-1.22","","","","","","","","","","","","","","","","","","","","","699","https://realitybending.github.io/IllusionGame/v3/stimuli/MullerLyer_-27.000_0.18509.png","arrowup","","","","","","","MullerLyer_-27.000_0.18509.png","A","arrowup","MullerLyer","-27.00000000","0.1850900000","136098","<p style=""color: black; font-size: 80px; padding-left: 14%; padding-right: 14%; padding-top: 46%; padding-bottom: 22%"">+</p>","true","MullerLyer","function () {
            return jsPsych.timelineVariable(""Illusion_Strength"")
        }","function () {
            return jsPsych.timelineVariable(""Difference"")
        }","1","23"
"","IG_FixationCross","","html-keyboard-response","120","137746","0.0-12.0-0.0-2.0-0.23","","","","","","","","","","","","","","","","","","","","","null","<p style=""color: black; font-size: 80px; padding-left: 26%; padding-right: 36%; padding-top: 23%; padding-bottom: 15%"">+</p>","null","","","","","","946","","","","","","","","","","","","","",""
"","IG_Trial","","image-keyboard-response","121","138604","0.0-12.0-0.0-2.0-1.23","","","","","","","","","","","","","","","","","","","","","857","https://realitybending.github.io/IllusionGame/v3/stimuli/MullerLyer_3.00000_0.45000.png","arrowup","","","","","","","MullerLyer_3.00000_0.45000.png","A","arrowup","MullerLyer","3.0000000000","0.4500000000","137746","<p style=""color: black; font-size: 80px; padding-left: 26%; padding-right: 36%; padding-top: 23%; padding-bottom: 15%"">+</p>","true","MullerLyer","function () {
            return jsPsych.timelineVariable(""Illusion_Strength"")
        }","function () {
            return jsPsych.timelineVariable(""Difference"")
        }","1","24"
"","IG_FixationCross","","html-keyboard-response","122","139589","0.0-12.0-0.0-2.0-0.24","","","","","","","","","","","","","","","","","","","","","null","<p style=""color: black; font-size: 80px; padding-left: 12%; padding-right: 23%; padding-top: 29%; padding-bottom: 38%"">+</p>","null","","","","","","983","","","","","","","","","","","","","",""
"","IG_Trial","","image-keyboard-response","123","140303","0.0-12.0-0.0-2.0-1.24","","","","","","","","","","","","","","","","","","","","","714","https://realitybending.github.io/IllusionGame/v3/stimuli/MullerLyer_-3.0000_0.18509.png","arrowup","","","","","","","MullerLyer_-3.0000_0.18509.png","A","arrowup","MullerLyer","-3.000000000","0.1850900000","139589","<p style=""color: black; font-size: 80px; padding-left: 12%; padding-right: 23%; padding-top: 29%; padding-bottom: 38%"">+</p>","true","MullerLyer","function () {
            return jsPsych.timelineVariable(""Illusion_Strength"")
        }","function () {
            return jsPsych.timelineVariable(""Difference"")
        }","1","25"
"","IG_FixationCross","","html-keyboard-response","124","141321","0.0-12.0-0.0-2.0-0.25","","","","","","","","","","","","","","","","","","","","","null","<p style=""color: black; font-size: 80px; padding-left: 28%; padding-right: 35%; padding-top: 49%; padding-bottom: 8%"">+</p>","null","","","","","","1016","","","","","","","","","","","","","",""
"","IG_Trial","","image-keyboard-response","125","142048","0.0-12.0-0.0-2.0-1.25","","","","","","","","","","","","","","","","","","","","","726","https://realitybending.github.io/IllusionGame/v3/stimuli/MullerLyer_15.0000_-0.30447.png","arrowdown","","","","","","","MullerLyer_15.0000_-0.30447.png","A","arrowdown","MullerLyer","15.000000000","-0.304470000","141321","<p style=""color: black; font-size: 80px; padding-left: 28%; padding-right: 35%; padding-top: 49%; padding-bottom: 8%"">+</p>","true","MullerLyer","function () {
            return jsPsych.timelineVariable(""Illusion_Strength"")
        }","function () {
            return jsPsych.timelineVariable(""Difference"")
        }","1","26"
"","IG_FixationCross","","html-keyboard-response","126","143145","0.0-12.0-0.0-2.0-0.26","","","","","","","","","","","","","","","","","","","","","null","<p style=""color: black; font-size: 80px; padding-left: 7%; padding-right: 30%; padding-top: 0%; padding-bottom: 10%"">+</p>","null","","","","","","1095","","","","","","","","","","","","","",""
"","IG_Trial","","image-keyboard-response","127","143755","0.0-12.0-0.0-2.0-1.26","","","","","","","","","","","","","","","","","","","","","609","https://realitybending.github.io/IllusionGame/v3/stimuli/MullerLyer_-27.000_0.45000.png","arrowdown","","","","","","","MullerLyer_-27.000_0.45000.png","A","arrowup","MullerLyer","-27.00000000","0.4500000000","143145","<p style=""color: black; font-size: 80px; padding-left: 7%; padding-right: 30%; padding-top: 0%; padding-bottom: 10%"">+</p>","false","MullerLyer","function () {
            return jsPsych.timelineVariable(""Illusion_Strength"")
        }","function () {
            return jsPsych.timelineVariable(""Difference"")
        }","1","27"
"","IG_FixationCross","","html-keyboard-response","128","144399","0.0-12.0-0.0-2.0-0.27","","","","","","","","","","","","","","","","","","","","","null","<p style=""color: black; font-size: 80px; padding-left: 42%; padding-right: 28%; padding-top: 5%; padding-bottom: 26%"">+</p>","null","","","","","","642","","","","","","","","","","","","","",""
"","IG_Trial","","image-keyboard-response","129","144960","0.0-12.0-0.0-2.0-1.27","","","","","","","","","","","","","","","","","","","","","560","https://realitybending.github.io/IllusionGame/v3/stimuli/MullerLyer_-21.000_-0.08716.png","arrowdown","","","","","","","MullerLyer_-21.000_-0.08716.png","A","arrowdown","MullerLyer","-21.00000000","-0.087160000","144399","<p style=""color: black; font-size: 80px; padding-left: 42%; padding-right: 28%; padding-top: 5%; padding-bottom: 26%"">+</p>","true","MullerLyer","function () {
            return jsPsych.timelineVariable(""Illusion_Strength"")
        }","function () {
            return jsPsych.timelineVariable(""Difference"")
        }","1","28"
"","IG_FixationCross","","html-keyboard-response","130","145922","0.0-12.0-0.0-2.0-0.28","","","","","","","","","","","","","","","","","","","","","null","<p style=""color: black; font-size: 80px; padding-left: 17%; padding-right: 17%; padding-top: 22%; padding-bottom: 8%"">+</p>","null","","","","","","960","","","","","","","","","","","","","",""
"","IG_Trial","","image-keyboard-response","131","146473","0.0-12.0-0.0-2.0-1.28","","","","","","","","","","","","","","","","","","","","","550","https://realitybending.github.io/IllusionGame/v3/stimuli/MullerLyer_-21.000_0.45000.png","arrowdown","","","","","","","MullerLyer_-21.000_0.45000.png","A","arrowup","MullerLyer","-21.00000000","0.4500000000","145922","<p style=""color: black; font-size: 80px; padding-left: 17%; padding-right: 17%; padding-top: 22%; padding-bottom: 8%"">+</p>","false","MullerLyer","function () {
            return jsPsych.timelineVariable(""Illusion_Strength"")
        }","function () {
            return jsPsych.timelineVariable(""Difference"")
        }","1","29"
"","IG_FixationCross","","html-keyboard-response","132","147294","0.0-12.0-0.0-2.0-0.29","","","","","","","","","","","","","","","","","","","","","null","<p style=""color: black; font-size: 80px; padding-left: 19%; padding-right: 19%; padding-top: 46%; padding-bottom: 8%"">+</p>","null","","","","","","820","","","","","","","","","","","","","",""
"","IG_Trial","","image-keyboard-response","133","148118","0.0-12.0-0.0-2.0-1.29","","","","","","","","","","","","","","","","","","","","","823","https://realitybending.github.io/IllusionGame/v3/stimuli/MullerLyer_-27.000_-0.18509.png","arrowdown","","","","","","","MullerLyer_-27.000_-0.18509.png","A","arrowdown","MullerLyer","-27.00000000","-0.185090000","147294","<p style=""color: black; font-size: 80px; padding-left: 19%; padding-right: 19%; padding-top: 46%; padding-bottom: 8%"">+</p>","true","MullerLyer","function () {
            return jsPsych.timelineVariable(""Illusion_Strength"")
        }","function () {
            return jsPsych.timelineVariable(""Difference"")
        }","1","30"
"","IG_FixationCross","","html-keyboard-response","134","148847","0.0-12.0-0.0-2.0-0.30","","","","","","","","","","","","","","","","","","","","","null","<p style=""color: black; font-size: 80px; padding-left: 35%; padding-right: 29%; padding-top: 45%; padding-bottom: 4%"">+</p>","null","","","","","","727","","","","","","","","","","","","","",""
"","IG_Trial","","image-keyboard-response","135","149395","0.0-12.0-0.0-2.0-1.30","","","","","","","","","","","","","","","","","","","","","548","https://realitybending.github.io/IllusionGame/v3/stimuli/MullerLyer_-9.0000_-0.30447.png","arrowup","","","","","","","MullerLyer_-9.0000_-0.30447.png","A","arrowdown","MullerLyer","-9.000000000","-0.304470000","148847","<p style=""color: black; font-size: 80px; padding-left: 35%; padding-right: 29%; padding-top: 45%; padding-bottom: 4%"">+</p>","false","MullerLyer","function () {
            return jsPsych.timelineVariable(""Illusion_Strength"")
        }","function () {
            return jsPsych.timelineVariable(""Difference"")
        }","1","31"
"","IG_FixationCross","","html-keyboard-response","136","150077","0.0-12.0-0.0-2.0-0.31","","","","","","","","","","","","","","","","","","","","","null","<p style=""color: black; font-size: 80px; padding-left: 41%; padding-right: 7%; padding-top: 11%; padding-bottom: 6%"">+</p>","null","","","","","","680","","","","","","","","","","","","","",""
"","IG_Trial","","image-keyboard-response","137","150771","0.0-12.0-0.0-2.0-1.31","","","","","","","","","","","","","","","","","","","","","693","https://realitybending.github.io/IllusionGame/v3/stimuli/MullerLyer_21.0000_0.45000.png","arrowup","","","","","","","MullerLyer_21.0000_0.45000.png","A","arrowup","MullerLyer","21.000000000","0.4500000000","150077","<p style=""color: black; font-size: 80px; padding-left: 41%; padding-right: 7%; padding-top: 11%; padding-bottom: 6%"">+</p>","true","MullerLyer","function () {
            return jsPsych.timelineVariable(""Illusion_Strength"")
        }","function () {
            return jsPsych.timelineVariable(""Difference"")
        }","1","32"
"","IG_FixationCross","","html-keyboard-response","138","151523","0.0-12.0-0.0-2.0-0.32","","","","","","","","","","","","","","","","","","","","","null","<p style=""color: black; font-size: 80px; padding-left: 8%; padding-right: 34%; padding-top: 33%; padding-bottom: 2%"">+</p>","null","","","","","","749","","","","","","","","","","","","","",""
"","IG_Trial","","image-keyboard-response","139","152220","0.0-12.0-0.0-2.0-1.32","","","","","","","","","","","","","","","","","","","","","697","https://realitybending.github.io/IllusionGame/v3/stimuli/MullerLyer_-27.000_-0.30447.png","arrowup","","","","","","","MullerLyer_-27.000_-0.30447.png","A","arrowdown","MullerLyer","-27.00000000","-0.304470000","151523","<p style=""color: black; font-size: 80px; padding-left: 8%; padding-right: 34%; padding-top: 33%; padding-bottom: 2%"">+</p>","false","MullerLyer","function () {
            return jsPsych.timelineVariable(""Illusion_Strength"")
        }","function () {
            return jsPsych.timelineVariable(""Difference"")
        }","1","33"
"","IG_FixationCross","","html-keyboard-response","140","152886","0.0-12.0-0.0-2.0-0.33","","","","","","","","","","","","","","","","","","","","","null","<p style=""color: black; font-size: 80px; padding-left: 1%; padding-right: 32%; padding-top: 18%; padding-bottom: 5%"">+</p>","null","","","","","","664","","","","","","","","","","","","","",""
"","IG_Trial","","image-keyboard-response","141","153621","0.0-12.0-0.0-2.0-1.33","","","","","","","","","","","","","","","","","","","","","735","https://realitybending.github.io/IllusionGame/v3/stimuli/MullerLyer_27.0000_-0.30447.png","arrowup","","","","","","","MullerLyer_27.0000_-0.30447.png","A","arrowdown","MullerLyer","27.000000000","-0.304470000","152886","<p style=""color: black; font-size: 80px; padding-left: 1%; padding-right: 32%; padding-top: 18%; padding-bottom: 5%"">+</p>","false","MullerLyer","function () {
            return jsPsych.timelineVariable(""Illusion_Strength"")
        }","function () {
            return jsPsych.timelineVariable(""Difference"")
        }","1","34"
"","IG_FixationCross","","html-keyboard-response","142","154513","0.0-12.0-0.0-2.0-0.34","","","","","","","","","","","","","","","","","","","","","null","<p style=""color: black; font-size: 80px; padding-left: 40%; padding-right: 9%; padding-top: 31%; padding-bottom: 40%"">+</p>","null","","","","","","890","","","","","","","","","","","","","",""
"","IG_Trial","","image-keyboard-response","143","155550","0.0-12.0-0.0-2.0-1.34","","","","","","","","","","","","","","","","","","","","","1036","https://realitybending.github.io/IllusionGame/v3/stimuli/MullerLyer_9.00000_-0.30447.png","arrowdown","","","","","","","MullerLyer_9.00000_-0.30447.png","A","arrowdown","MullerLyer","9.0000000000","-0.304470000","154513","<p style=""color: black; font-size: 80px; padding-left: 40%; padding-right: 9%; padding-top: 31%; padding-bottom: 40%"">+</p>","true","MullerLyer","function () {
            return jsPsych.timelineVariable(""Illusion_Strength"")
        }","function () {
            return jsPsych.timelineVariable(""Difference"")
        }","1","35"
"","IG_FixationCross","","html-keyboard-response","144","156162","0.0-12.0-0.0-2.0-0.35","","","","","","","","","","","","","","","","","","","","","null","<p style=""color: black; font-size: 80px; padding-left: 13%; padding-right: 44%; padding-top: 23%; padding-bottom: 17%"">+</p>","null","","","","","","611","","","","","","","","","","","","","",""
"","IG_Trial","","image-keyboard-response","145","156703","0.0-12.0-0.0-2.0-1.35","","","","","","","","","","","","","","","","","","","","","540","https://realitybending.github.io/IllusionGame/v3/stimuli/MullerLyer_3.00000_-0.30447.png","arrowup","","","","","","","MullerLyer_3.00000_-0.30447.png","A","arrowdown","MullerLyer","3.0000000000","-0.304470000","156162","<p style=""color: black; font-size: 80px; padding-left: 13%; padding-right: 44%; padding-top: 23%; padding-bottom: 17%"">+</p>","false","MullerLyer","function () {
            return jsPsych.timelineVariable(""Illusion_Strength"")
        }","function () {
            return jsPsych.timelineVariable(""Difference"")
        }","1","36"
"","IG_FixationCross","","html-keyboard-response","146","157670","0.0-12.0-0.0-2.0-0.36","","","","","","","","","","","","","","","","","","","","","null","<p style=""color: black; font-size: 80px; padding-left: 23%; padding-right: 6%; padding-top: 42%; padding-bottom: 21%"">+</p>","null","","","","","","965","","","","","","","","","","","","","",""
"","IG_Trial","","image-keyboard-response","147","158588","0.0-12.0-0.0-2.0-1.36","","","","","","","","","","","","","","","","","","","","","917","https://realitybending.github.io/IllusionGame/v3/stimuli/MullerLyer_-3.0000_-0.30447.png","arrowdown","","","","","","","MullerLyer_-3.0000_-0.30447.png","A","arrowdown","MullerLyer","-3.000000000","-0.304470000","157670","<p style=""color: black; font-size: 80px; padding-left: 23%; padding-right: 6%; padding-top: 42%; padding-bottom: 21%"">+</p>","true","MullerLyer","function () {
            return jsPsych.timelineVariable(""Illusion_Strength"")
        }","function () {
            return jsPsych.timelineVariable(""Difference"")
        }","1","37"
"","IG_FixationCross","","html-keyboard-response","148","159213","0.0-12.0-0.0-2.0-0.37","","","","","","","","","","","","","","","","","","","","","null","<p style=""color: black; font-size: 80px; padding-left: 23%; padding-right: 25%; padding-top: 28%; padding-bottom: 22%"">+</p>","null","","","","","","623","","","","","","","","","","","","","",""
"","IG_Trial","","image-keyboard-response","149","160029","0.0-12.0-0.0-2.0-1.37","","","","","","","","","","","","","","","","","","","","","815","https://realitybending.github.io/IllusionGame/v3/stimuli/MullerLyer_-3.0000_-0.18509.png","arrowdown","","","","","","","MullerLyer_-3.0000_-0.18509.png","A","arrowdown","MullerLyer","-3.000000000","-0.185090000","159213","<p style=""color: black; font-size: 80px; padding-left: 23%; padding-right: 25%; padding-top: 28%; padding-bottom: 22%"">+</p>","true","MullerLyer","function () {
            return jsPsych.timelineVariable(""Illusion_Strength"")
        }","function () {
            return jsPsych.timelineVariable(""Difference"")
        }","1","38"
"","IG_FixationCross","","html-keyboard-response","150","160900","0.0-12.0-0.0-2.0-0.38","","","","","","","","","","","","","","","","","","","","","null","<p style=""color: black; font-size: 80px; padding-left: 41%; padding-right: 43%; padding-top: 47%; padding-bottom: 30%"">+</p>","null","","","","","","869","","","","","","","","","","","","","",""
"","IG_Trial","","image-keyboard-response","151","161584","0.0-12.0-0.0-2.0-1.38","","","","","","","","","","","","","","","","","","","","","684","https://realitybending.github.io/IllusionGame/v3/stimuli/MullerLyer_-21.000_0.08716.png","arrowdown","","","","","","","MullerLyer_-21.000_0.08716.png","A","arrowup","MullerLyer","-21.00000000","0.0871600000","160900","<p style=""color: black; font-size: 80px; padding-left: 41%; padding-right: 43%; padding-top: 47%; padding-bottom: 30%"">+</p>","false","MullerLyer","function () {
            return jsPsych.timelineVariable(""Illusion_Strength"")
        }","function () {
            return jsPsych.timelineVariable(""Difference"")
        }","1","39"
"","IG_FixationCross","","html-keyboard-response","152","162643","0.0-12.0-0.0-2.0-0.39","","","","","","","","","","","","","","","","","","","","","null","<p style=""color: black; font-size: 80px; padding-left: 40%; padding-right: 44%; padding-top: 24%; padding-bottom: 10%"">+</p>","null","","","","","","1057","","","","","","","","","","","","","",""
"","IG_Trial","","image-keyboard-response","153","163335","0.0-12.0-0.0-2.0-1.39","","","","","","","","","","","","","","","","","","","","","691","https://realitybending.github.io/IllusionGame/v3/stimuli/MullerLyer_15.0000_0.45000.png","arrowup","","","","","","","MullerLyer_15.0000_0.45000.png","A","arrowup","MullerLyer","15.000000000","0.4500000000","162643","<p style=""color: black; font-size: 80px; padding-left: 40%; padding-right: 44%; padding-top: 24%; padding-bottom: 10%"">+</p>","true","MullerLyer","function () {
            return jsPsych.timelineVariable(""Illusion_Strength"")
        }","function () {
            return jsPsych.timelineVariable(""Difference"")
        }","1","40"
"","IG_FixationCross","","html-keyboard-response","154","164210","0.0-12.0-0.0-2.0-0.40","","","","","","","","","","","","","","","","","","","","","null","<p style=""color: black; font-size: 80px; padding-left: 29%; padding-right: 19%; padding-top: 22%; padding-bottom: 40%"">+</p>","null","","","","","","873","","","","","","","","","","","","","",""
"","IG_Trial","","image-keyboard-response","155","164901","0.0-12.0-0.0-2.0-1.40","","","","","","","","","","","","","","","","","","","","","691","https://realitybending.github.io/IllusionGame/v3/stimuli/MullerLyer_21.0000_0.08716.png","arrowdown","","","","","","","MullerLyer_21.0000_0.08716.png","A","arrowup","MullerLyer","21.000000000","0.0871600000","164210","<p style=""color: black; font-size: 80px; padding-left: 29%; padding-right: 19%; padding-top: 22%; padding-bottom: 40%"">+</p>","false","MullerLyer","function () {
            return jsPsych.timelineVariable(""Illusion_Strength"")
        }","function () {
            return jsPsych.timelineVariable(""Difference"")
        }","1","41"
"","IG_FixationCross","","html-keyboard-response","156","165875","0.0-12.0-0.0-2.0-0.41","","","","","","","","","","","","","","","","","","","","","null","<p style=""color: black; font-size: 80px; padding-left: 22%; padding-right: 34%; padding-top: 32%; padding-bottom: 5%"">+</p>","null","","","","","","972","","","","","","","","","","","","","",""
"","IG_Trial","","image-keyboard-response","157","166585","0.0-12.0-0.0-2.0-1.41","","","","","","","","","","","","","","","","","","","","","710","https://realitybending.github.io/IllusionGame/v3/stimuli/MullerLyer_15.0000_0.18509.png","arrowup","","","","","","","MullerLyer_15.0000_0.18509.png","A","arrowup","MullerLyer","15.000000000","0.1850900000","165875","<p style=""color: black; font-size: 80px; padding-left: 22%; padding-right: 34%; padding-top: 32%; padding-bottom: 5%"">+</p>","true","MullerLyer","function () {
            return jsPsych.timelineVariable(""Illusion_Strength"")
        }","function () {
            return jsPsych.timelineVariable(""Difference"")
        }","1","42"
"","IG_FixationCross","","html-keyboard-response","158","167674","0.0-12.0-0.0-2.0-0.42","","","","","","","","","","","","","","","","","","","","","null","<p style=""color: black; font-size: 80px; padding-left: 37%; padding-right: 3%; padding-top: 44%; padding-bottom: 48%"">+</p>","null","","","","","","1087","","","","","","","","","","","","","",""
"","IG_Trial","","image-keyboard-response","159","168122","0.0-12.0-0.0-2.0-1.42","","","","","","","","","","","","","","","","","","","","","448","https://realitybending.github.io/IllusionGame/v3/stimuli/MullerLyer_27.0000_-0.08716.png","arrowup","","","","","","","MullerLyer_27.0000_-0.08716.png","A","arrowdown","MullerLyer","27.000000000","-0.087160000","167674","<p style=""color: black; font-size: 80px; padding-left: 37%; padding-right: 3%; padding-top: 44%; padding-bottom: 48%"">+</p>","false","MullerLyer","function () {
            return jsPsych.timelineVariable(""Illusion_Strength"")
        }","function () {
            return jsPsych.timelineVariable(""Difference"")
        }","1","43"
"","IG_FixationCross","","html-keyboard-response","160","168744","0.0-12.0-0.0-2.0-0.43","","","","","","","","","","","","","","","","","","","","","null","<p style=""color: black; font-size: 80px; padding-left: 42%; padding-right: 13%; padding-top: 12%; padding-bottom: 9%"">+</p>","null","","","","","","620","","","","","","","","","","","","","",""
"","IG_Trial","","image-keyboard-response","161","169322","0.0-12.0-0.0-2.0-1.43","","","","","","","","","","","","","","","","","","","","","577","https://realitybending.github.io/IllusionGame/v3/stimuli/MullerLyer_-15.000_0.30447.png","arrowdown","","","","","","","MullerLyer_-15.000_0.30447.png","A","arrowup","MullerLyer","-15.00000000","0.3044700000","168744","<p style=""color: black; font-size: 80px; padding-left: 42%; padding-right: 13%; padding-top: 12%; padding-bottom: 9%"">+</p>","false","MullerLyer","function () {
            return jsPsych.timelineVariable(""Illusion_Strength"")
        }","function () {
            return jsPsych.timelineVariable(""Difference"")
        }","1","44"
"","IG_FixationCross","","html-keyboard-response","162","170377","0.0-12.0-0.0-2.0-0.44","","","","","","","","","","","","","","","","","","","","","null","<p style=""color: black; font-size: 80px; padding-left: 36%; padding-right: 40%; padding-top: 22%; padding-bottom: 19%"">+</p>","null","","","","","","1054","","","","","","","","","","","","","",""
"","IG_Trial","","image-keyboard-response","163","170938","0.0-12.0-0.0-2.0-1.44","","","","","","","","","","","","","","","","","","","","","561","https://realitybending.github.io/IllusionGame/v3/stimuli/MullerLyer_9.00000_0.30447.png","arrowup","","","","","","","MullerLyer_9.00000_0.30447.png","A","arrowup","MullerLyer","9.0000000000","0.3044700000","170377","<p style=""color: black; font-size: 80px; padding-left: 36%; padding-right: 40%; padding-top: 22%; padding-bottom: 19%"">+</p>","true","MullerLyer","function () {
            return jsPsych.timelineVariable(""Illusion_Strength"")
        }","function () {
            return jsPsych.timelineVariable(""Difference"")
        }","1","45"
"","IG_FixationCross","","html-keyboard-response","164","171587","0.0-12.0-0.0-2.0-0.45","","","","","","","","","","","","","","","","","","","","","null","<p style=""color: black; font-size: 80px; padding-left: 48%; padding-right: 4%; padding-top: 33%; padding-bottom: 16%"">+</p>","null","","","","","","647","","","","","","","","","","","","","",""
"","IG_Trial","","image-keyboard-response","165","172769","0.0-12.0-0.0-2.0-1.45","","","","","","","","","","","","","","","","","","","","","1180","https://realitybending.github.io/IllusionGame/v3/stimuli/MullerLyer_-9.0000_0.08716.png","arrowup","","","","","","","MullerLyer_-9.0000_0.08716.png","A","arrowup","MullerLyer","-9.000000000","0.0871600000","171587","<p style=""color: black; font-size: 80px; padding-left: 48%; padding-right: 4%; padding-top: 33%; padding-bottom: 16%"">+</p>","true","MullerLyer","function () {
            return jsPsych.timelineVariable(""Illusion_Strength"")
        }","function () {
            return jsPsych.timelineVariable(""Difference"")
        }","1","46"
"","IG_FixationCross","","html-keyboard-response","166","173500","0.0-12.0-0.0-2.0-0.46","","","","","","","","","","","","","","","","","","","","","null","<p style=""color: black; font-size: 80px; padding-left: 21%; padding-right: 14%; padding-top: 13%; padding-bottom: 12%"">+</p>","null","","","","","","729","","","","","","","","","","","","","",""
"","IG_Trial","","image-keyboard-response","167","174075","0.0-12.0-0.0-2.0-1.46","","","","","","","","","","","","","","","","","","","","","574","https://realitybending.github.io/IllusionGame/v3/stimuli/MullerLyer_-15.000_0.45000.png","arrowdown","","","","","","","MullerLyer_-15.000_0.45000.png","A","arrowup","MullerLyer","-15.00000000","0.4500000000","173500","<p style=""color: black; font-size: 80px; padding-left: 21%; padding-right: 14%; padding-top: 13%; padding-bottom: 12%"">+</p>","false","MullerLyer","function () {
            return jsPsych.timelineVariable(""Illusion_Strength"")
        }","function () {
            return jsPsych.timelineVariable(""Difference"")
        }","1","47"
"","IG_FixationCross","","html-keyboard-response","168","174690","0.0-12.0-0.0-2.0-0.47","","","","","","","","","","","","","","","","","","","","","null","<p style=""color: black; font-size: 80px; padding-left: 16%; padding-right: 35%; padding-top: 20%; padding-bottom: 0%"">+</p>","null","","","","","","613","","","","","","","","","","","","","",""
"","IG_Trial","","image-keyboard-response","169","175309","0.0-12.0-0.0-2.0-1.47","","","","","","","","","","","","","","","","","","","","","619","https://realitybending.github.io/IllusionGame/v3/stimuli/MullerLyer_15.0000_-0.08716.png","arrowdown","","","","","","","MullerLyer_15.0000_-0.08716.png","A","arrowdown","MullerLyer","15.000000000","-0.087160000","174690","<p style=""color: black; font-size: 80px; padding-left: 16%; padding-right: 35%; padding-top: 20%; padding-bottom: 0%"">+</p>","true","MullerLyer","function () {
            return jsPsych.timelineVariable(""Illusion_Strength"")
        }","function () {
            return jsPsych.timelineVariable(""Difference"")
        }","1","48"
"","IG_FixationCross","","html-keyboard-response","170","176271","0.0-12.0-0.0-2.0-0.48","","","","","","","","","","","","","","","","","","","","","null","<p style=""color: black; font-size: 80px; padding-left: 36%; padding-right: 1%; padding-top: 36%; padding-bottom: 24%"">+</p>","null","","","","","","960","","","","","","","","","","","","","",""
"","IG_Trial","","image-keyboard-response","171","177219","0.0-12.0-0.0-2.0-1.48","","","","","","","","","","","","","","","","","","","","","947","https://realitybending.github.io/IllusionGame/v3/stimuli/MullerLyer_-21.000_-0.18509.png","arrowdown","","","","","","","MullerLyer_-21.000_-0.18509.png","A","arrowdown","MullerLyer","-21.00000000","-0.185090000","176271","<p style=""color: black; font-size: 80px; padding-left: 36%; padding-right: 1%; padding-top: 36%; padding-bottom: 24%"">+</p>","true","MullerLyer","function () {
            return jsPsych.timelineVariable(""Illusion_Strength"")
        }","function () {
            return jsPsych.timelineVariable(""Difference"")
        }","1","49"
"","IG_FixationCross","","html-keyboard-response","172","177886","0.0-12.0-0.0-2.0-0.49","","","","","","","","","","","","","","","","","","","","","null","<p style=""color: black; font-size: 80px; padding-left: 5%; padding-right: 30%; padding-top: 39%; padding-bottom: 11%"">+</p>","null","","","","","","665","","","","","","","","","","","","","",""
"","IG_Trial","","image-keyboard-response","173","179040","0.0-12.0-0.0-2.0-1.49","","","","","","","","","","","","","","","","","","","","","1154","https://realitybending.github.io/IllusionGame/v3/stimuli/MullerLyer_-9.0000_0.45000.png","arrowdown","","","","","","","MullerLyer_-9.0000_0.45000.png","A","arrowup","MullerLyer","-9.000000000","0.4500000000","177886","<p style=""color: black; font-size: 80px; padding-left: 5%; padding-right: 30%; padding-top: 39%; padding-bottom: 11%"">+</p>","false","MullerLyer","function () {
            return jsPsych.timelineVariable(""Illusion_Strength"")
        }","function () {
            return jsPsych.timelineVariable(""Difference"")
        }","1","50"
"","IG_FixationCross","","html-keyboard-response","174","179827","0.0-12.0-0.0-2.0-0.50","","","","","","","","","","","","","","","","","","","","","null","<p style=""color: black; font-size: 80px; padding-left: 20%; padding-right: 18%; padding-top: 43%; padding-bottom: 26%"">+</p>","null","","","","","","784","","","","","","","","","","","","","",""
"","IG_Trial","","image-keyboard-response","175","180410","0.0-12.0-0.0-2.0-1.50","","","","","","","","","","","","","","","","","","","","","582","https://realitybending.github.io/IllusionGame/v3/stimuli/MullerLyer_-9.0000_-0.18509.png","arrowup","","","","","","","MullerLyer_-9.0000_-0.18509.png","A","arrowdown","MullerLyer","-9.000000000","-0.185090000","179827","<p style=""color: black; font-size: 80px; padding-left: 20%; padding-right: 18%; padding-top: 43%; padding-bottom: 26%"">+</p>","false","MullerLyer","function () {
            return jsPsych.timelineVariable(""Illusion_Strength"")
        }","function () {
            return jsPsych.timelineVariable(""Difference"")
        }","1","51"
"","IG_FixationCross","","html-keyboard-response","176","181102","0.0-12.0-0.0-2.0-0.51","","","","","","","","","","","","","","","","","","","","","null","<p style=""color: black; font-size: 80px; padding-left: 28%; padding-right: 12%; padding-top: 8%; padding-bottom: 40%"">+</p>","null","","","","","","691","","","","","","","","","","","","","",""
"","IG_Trial","","image-keyboard-response","177","181860","0.0-12.0-0.0-2.0-1.51","","","","","","","","","","","","","","","","","","","","","757","https://realitybending.github.io/IllusionGame/v3/stimuli/MullerLyer_9.00000_-0.4500.png","arrowdown","","","","","","","MullerLyer_9.00000_-0.4500.png","A","arrowdown","MullerLyer","9.0000000000","-0.450000000","181102","<p style=""color: black; font-size: 80px; padding-left: 28%; padding-right: 12%; padding-top: 8%; padding-bottom: 40%"">+</p>","true","MullerLyer","function () {
            return jsPsych.timelineVariable(""Illusion_Strength"")
        }","function () {
            return jsPsych.timelineVariable(""Difference"")
        }","1","52"
"","IG_FixationCross","","html-keyboard-response","178","182698","0.0-12.0-0.0-2.0-0.52","","","","","","","","","","","","","","","","","","","","","null","<p style=""color: black; font-size: 80px; padding-left: 8%; padding-right: 17%; padding-top: 18%; padding-bottom: 19%"">+</p>","null","","","","","","836","","","","","","","","","","","","","",""
"","IG_Trial","","image-keyboard-response","179","183377","0.0-12.0-0.0-2.0-1.52","","","","","","","","","","","","","","","","","","","","","678","https://realitybending.github.io/IllusionGame/v3/stimuli/MullerLyer_-9.0000_-0.4500.png","arrowdown","","","","","","","MullerLyer_-9.0000_-0.4500.png","A","arrowdown","MullerLyer","-9.000000000","-0.450000000","182698","<p style=""color: black; font-size: 80px; padding-left: 8%; padding-right: 17%; padding-top: 18%; padding-bottom: 19%"">+</p>","true","MullerLyer","function () {
            return jsPsych.timelineVariable(""Illusion_Strength"")
        }","function () {
            return jsPsych.timelineVariable(""Difference"")
        }","1","53"
"","IG_FixationCross","","html-keyboard-response","180","184294","0.0-12.0-0.0-2.0-0.53","","","","","","","","","","","","","","","","","","","","","null","<p style=""color: black; font-size: 80px; padding-left: 8%; padding-right: 33%; padding-top: 19%; padding-bottom: 30%"">+</p>","null","","","","","","916","","","","","","","","","","","","","",""
"","IG_Trial","","image-keyboard-response","181","185091","0.0-12.0-0.0-2.0-1.53","","","","","","","","","","","","","","","","","","","","","796","https://realitybending.github.io/IllusionGame/v3/stimuli/MullerLyer_-21.000_0.30447.png","arrowdown","","","","","","","MullerLyer_-21.000_0.30447.png","A","arrowup","MullerLyer","-21.00000000","0.3044700000","184294","<p style=""color: black; font-size: 80px; padding-left: 8%; padding-right: 33%; padding-top: 19%; padding-bottom: 30%"">+</p>","false","MullerLyer","function () {
            return jsPsych.timelineVariable(""Illusion_Strength"")
        }","function () {
            return jsPsych.timelineVariable(""Difference"")
        }","1","54"
"","IG_FixationCross","","html-keyboard-response","182","185706","0.0-12.0-0.0-2.0-0.54","","","","","","","","","","","","","","","","","","","","","null","<p style=""color: black; font-size: 80px; padding-left: 34%; padding-right: 29%; padding-top: 8%; padding-bottom: 19%"">+</p>","null","","","","","","613","","","","","","","","","","","","","",""
"","IG_Trial","","image-keyboard-response","183","186594","0.0-12.0-0.0-2.0-1.54","","","","","","","","","","","","","","","","","","","","","887","https://realitybending.github.io/IllusionGame/v3/stimuli/MullerLyer_21.0000_-0.30447.png","arrowdown","","","","","","","MullerLyer_21.0000_-0.30447.png","A","arrowdown","MullerLyer","21.000000000","-0.304470000","185706","<p style=""color: black; font-size: 80px; padding-left: 34%; padding-right: 29%; padding-top: 8%; padding-bottom: 19%"">+</p>","true","MullerLyer","function () {
            return jsPsych.timelineVariable(""Illusion_Strength"")
        }","function () {
            return jsPsych.timelineVariable(""Difference"")
        }","1","55"
"","IG_FixationCross","","html-keyboard-response","184","187568","0.0-12.0-0.0-2.0-0.55","","","","","","","","","","","","","","","","","","","","","null","<p style=""color: black; font-size: 80px; padding-left: 37%; padding-right: 29%; padding-top: 46%; padding-bottom: 20%"">+</p>","null","","","","","","973","","","","","","","","","","","","","",""
"","IG_Trial","","image-keyboard-response","185","188052","0.0-12.0-0.0-2.0-1.55","","","","","","","","","","","","","","","","","","","","","483","https://realitybending.github.io/IllusionGame/v3/stimuli/MullerLyer_27.0000_0.30447.png","arrowup","","","","","","","MullerLyer_27.0000_0.30447.png","A","arrowup","MullerLyer","27.000000000","0.3044700000","187568","<p style=""color: black; font-size: 80px; padding-left: 37%; padding-right: 29%; padding-top: 46%; padding-bottom: 20%"">+</p>","true","MullerLyer","function () {
            return jsPsych.timelineVariable(""Illusion_Strength"")
        }","function () {
            return jsPsych.timelineVariable(""Difference"")
        }","1","56"
"","IG_FixationCross","","html-keyboard-response","186","188939","0.0-12.0-0.0-2.0-0.56","","","","","","","","","","","","","","","","","","","","","null","<p style=""color: black; font-size: 80px; padding-left: 42%; padding-right: 37%; padding-top: 8%; padding-bottom: 42%"">+</p>","null","","","","","","885","","","","","","","","","","","","","",""
"","IG_Trial","","image-keyboard-response","187","189584","0.0-12.0-0.0-2.0-1.56","","","","","","","","","","","","","","","","","","","","","645","https://realitybending.github.io/IllusionGame/v3/stimuli/MullerLyer_9.00000_-0.08716.png","arrowdown","","","","","","","MullerLyer_9.00000_-0.08716.png","A","arrowdown","MullerLyer","9.0000000000","-0.087160000","188939","<p style=""color: black; font-size: 80px; padding-left: 42%; padding-right: 37%; padding-top: 8%; padding-bottom: 42%"">+</p>","true","MullerLyer","function () {
            return jsPsych.timelineVariable(""Illusion_Strength"")
        }","function () {
            return jsPsych.timelineVariable(""Difference"")
        }","1","57"
