"success","screen","group","trial_type","trial_index","time_elapsed","internal_node_id","label_stranger","label_friend","width","height","webaudio","browser","browser_version","mobile","os","fullscreen","vsync_rate","webcam","microphone","date","time","screen_height","screen_width","researcher","sona_id","prolific_id","study_id","session_id","rt","stimulus","response","question_order","timeout","failed_images","failed_audio","failed_video","trial_duration","shape","trial_number","answer","answer_correct","correct","condition","label_condition","block_number","file","block","correct_response","Illusion_Type","Illusion_Strength","Illusion_Difference","isi","fixation_cross","type","illusion_strength","illusion_difference"
"true","fullscreen","psychedelic_society","fullscreen","0","11773","0.0-0.0","Sting","LOUIS","","","","","","","","","","","","","","","","","","","","","","","","","","","","","","","","","","","","","","","","","","","","","","","",""
"","browser_info","","browser-check","1","12758","0.0-1.0","Sting","LOUIS","1792","1040","true","safari","17.2.1","false","Mac OS","true","61.41","true","true","27/05/2024","14:01:13","1040","1792","","","","","","","","","","","","","","","","","","","","","","","","","","","","","","","","",""
"","consent","","html-button-response","2","45578","0.0-2.0","Sting","LOUIS","","","","","","","","","","","","","","","","","","","","","32817","<img src='https://u-paris.fr/wp-content/uploads/2022/03/Universite_Paris-Cite-logo.jpeg' width='300px' align='right'/><br><br><br><br><br><h1>Consentement éclairé</h1><p align='left'>Dans cette étude, vous allez devoir compléter deux tâches sous forme de jeux pour mesurer (i) <b>vos capacités d'associations</b> et (ii) votre <b>sensibilité aux illusions visuelles</b>.</p><p align='left'>Vous aurez aussi à compléter trois questionnaires à propos de (i) <b>votre fonctionnement psychologique</b> et (ii) votre <b>dernière expérience avec une substance psychédélique classique</b>.</p><p align='left'>L'étude dure environ 40 minutes au total. Nous vous demandons de veiller à bien rester concentré(e) et à fournir des réponses authentiques.</p><p align='left'>Les jeux se déroulent en plusieurs parties et sont entrecoupés de questionnaires, c'est normal, merci de poursuivre l'étude jusqu'à l'écran confirmant l'enregistrement de vos données.</p><p align='left'>Votre participation à cette recherche est confidentielle. <b>Vos réponses seront totalement anonymisées</b>, et votre adresse IP ni aucune autres informations identifiantes ne sont collectées.</p><p align='left'>Vos données sont essentielles pour nous. Elles contribuent aux avancées scientifiques sur les thérapies-assistées par psychédéliques. <b>En participant, vous acceptez de suivre les instructions et de fournir des réponses honnêtes.</b> Si vous ne souhaitez pas participer à cette étude, vous pouvez simplement fermer votre navigateur.</p><p align='left'>Vous avez également le droit de vous retirer de l'étude à n'importe quel moment, pour cela, vous pouvez simplement fermer votre navigateur web.</p><p align='left'><br><sub><sup>Si vous avez des questions sur le projet, veuillez contacter Baptiste Fauvel (baptiste.fauvel@u-paris.fr). Cette étude a été expertisée et validée par le comité d'éthique de l'université Paris Cité.</sup></sub></p>","0","","","","","","","","","","","","","","","","","","","","","","","","",""
"","demographics_1","","survey-multi-choice","3","62749","0.0-3.0-0.0","Sting","LOUIS","","","","","","","","","","","","","","","","","","","","","17169","","{""sex"":""Homme"",""student"":""Non"",""education"":""Lycée"",""language"":""Langue maternelle""}","[0,1,2,3]","","","","","","","","","","","","","","","","","","","","","","","",""
"","demographics_2","","survey-text","4","67034","0.0-3.0-1.0","Sting","LOUIS","","","","","","","","","","","","","","","","","","","","","4274","","{""age"":""23""}","","","","","","","","","","","","","","","","","","","","","","","","",""
"","","","html-button-response","5","80586","0.0-4.0","Sting","LOUIS","","","","","","","","","","","","","","","","","","","","","13551","<p style=""font-size:18px; color:black;"">Avez-vous <b>déjà</b> été diagnostiqué(e) pour une des pathologies suivantes ?</p>","1","","","","","","","","","","","","","","","","","","","","","","","","",""
"","","","html-button-response","6","83918","0.0-6.0","Sting","LOUIS","","","","","","","","","","","","","","","","","","","","","3331","<p style=""font-size:18px; color:black;"">Etes-vous <b>en ce moment</b> diagnostiqué(e) pour une des pathologies suivantes?</p>","1","","","","","","","","","","","","","","","","","","","","","","","","",""
"","","","html-button-response","7","92839","0.0-8.0","Sting","LOUIS","","","","","","","","","","","","","","","","","","","","","8921","<p style=""font-size:18px; color:black;"">Méditez-vous régulièrement? E.g. au moins une fois par semaine</p>","1","","","","","","","","","","","","","","","","","","","","","","","","",""
"","","","survey-multi-choice","8","106149","0.0-10.0-0.0","Sting","LOUIS","","","","","","","","","","","","","","","","","","","","","13308","","{""psych_freq"":""Entre 11 et 50 fois""}","[0]","","","","","","","","","","","","","","","","","","","","","","","",""
"","","","html-button-response","9","112227","0.0-10.0-1.0","Sting","LOUIS","","","","","","","","","","","","","","","","","","","","","6077","<p style=""font-size:18px; color:black;"">Avez-vous consommé une substance psychédélique classique (e.g., LSD, champignons à psilocybe, ayahuasca) <b>au cours du dernier mois</b> ?</p>","0","","","","","","","","","","","","","","","","","","","","","","","","",""
"","","","survey-text","10","206255","0.0-10.0-2.0","Sting","LOUIS","","","","","","","","","","","","","","","","","","","","","94022","","{""Q0"":""37""}","","","","","","","","","","","","","","","","","","","","","","","","",""
"","","","survey-multi-choice","11","243090","0.0-10.0-3.0","Sting","LOUIS","","","","","","","","","","","","","","","","","","","","","36834","","{""intention"":""Récréative"",""substance"":""Psilocybine/champignons/truffes"",""dose"":""Plus élevée qu'une dose typique""}","[0,1,2]","","","","","","","","","","","","","","","","","","","","","","","",""
"","","","survey-multi-choice","12","253392","0.0-10.0-4.0","Sting","LOUIS","","","","","","","","","","","","","","","","","","","","","10301","","{""cannabis"":""Oui"",""Alcool"":""Non"",""stimulants"":""Non"",""MDMA"":""Non"",""Opiacés"":""Non"",""Dissociatifs"":""Non""}","[0,1,2,3,4,5]","","","","","","","","","","","","","","","","","","","","","","","",""
"","questionnaire_meq_psyche_society","","survey-likert","13","488010","0.0-11.0","Sting","LOUIS","","","","","","","","","","","","","","","","","","","","","234609","","{""Transcendence_1"":4,""PositiveMood_2"":2,""Ineffability_3"":3,""Mystical_4"":0,""Mystical_5"":2,""Mystical_6"":3,""Transcendence_7"":3,""PositiveMood_8"":3,""Mystical_9"":2,""Ineffability_10"":4,""Transcendence_11"":0,""PositiveMood_12"":2,""Transcendence_13"":2,""Mystical_14"":3,""Mystical_15"":1,""Mystical_16"":2,""PositiveMood_17"":2,""Mystical_18"":3,""Transcendence_19"":0,""Mystical_20"":0,""Mystical_21"":3,""Transcendence_22"":3,""Mystical_23"":1,""Mystical_24"":0,""Mystical_25"":4,""Mystical_26"":2,""PositiveMood_27"":3,""Mystical_28"":3,""Ineffability_29"":3,""PositiveMood_30"":4}","[0,1,2,3,4,5,6,7,8,9,10,11,12,13,14,15,16,17,18,19,20,21,22,23,24,25,26,27,28,29]","","","","","","","","","","","","","","","","","","","","","","","",""
"true","","","preload","14","488484","0.0-12.0","Sting","LOUIS","","","","","","","","","","","","","","","","","","","","","","","","","false","[]","[]","[]","","","","","","","","","","","","","","","","","","","",""
"","SAT_instructions_general_fr","","html-button-response","15","496044","0.0-13.0","Sting","LOUIS","","","","","","","","","","","","","","","","","","","","","7559","<h1>Jeu d'associations forme-personne</h1><p>Dans ce jeu, vous allez devoir associer des <b>formes</b> à une <b>personne</b> (vous, votre meilleur ami et une célébrité).</p><p>Pour personnaliser ce jeu, vous allez d'abord devoir choisir un ami et une célébrité que vous connaissez.</p>","0","","","","","","","","","","","","","","","","","","","","","","","","",""
"","SAT_strangerlabel_fr","","survey-multi-choice","16","503132","0.0-14.0","Sting","LOUIS","","","","","","","","","","","","","","","","","","","","","7086","","{""label_stranger"":""Sting""}","[0]","","","","","","","","","","","","","","","","","","","","","","","",""
"","SAT_friendlabel_fr","","survey-text","17","521189","0.0-15.0","Sting","LOUIS","","","","","","","","","","","","","","","","","","","","","18049","","{""label_friend"":""LOUIS""}","","","","","","","","","","","","","","","","","","","","","","","","",""
"","SAT_instructions_practice_fr","","html-button-response","18","553348","0.0-16.0","Sting","LOUIS","","","","","","","","","","","","","","","","","","","","","32159","<h1>Entraînement</h1><p>Chaque personne (i.e., Vous, meilleur ami, célébrité) va être associée à une forme spécifique (cercle, carré ou triangle)</p><p>Pendant la phase d'entraînement, une forme sera affichée avec les trois personnes.</p><p>Vous devrez sélectionner la personne qui correspond à la forme présentée aussi rapidement et précisément que possible</p><p>Si la personne correcte est à <b>gauche</b>, appuyez sur <b>'v'</b>.</p><p>Si la personne correcte est au <b>milieu</b>, appuyez sur <b>'b'</b>.</p><p>Si la personne correcte est à <b>droite</b>, appuyez sur <b>'n'</b>.</p><br>","0","","","","","","","","","","","","","","","","","","","","","","","","",""
"","SAT_assignmentscreen","","html-button-response","19","574261","0.0-17.0","Sting","LOUIS","","","","","","","","","","","","","","","","","","","","","20912","<h1>Instructions</h1><div id ='align-middle'><b>Vous</b> serez représenté(e) par un  <b>triangle</b>  <img src= https://realitybending.github.io/IllusionGameSelfAssociation/experiment/SelfAssociation/stimuli/triangle.png height=40></img></div><br><div id ='align-middle'><b>Sting</b> sera représenté(e) par un  <b>cercle</b>  <img src= https://realitybending.github.io/IllusionGameSelfAssociation/experiment/SelfAssociation/stimuli/cercle.png height=40></img></div><br><div id = 'align-middle'><b>LOUIS</b> sera représenté(e) par un  <b>carré</b>  <img src= https://realitybending.github.io/IllusionGameSelfAssociation/experiment/SelfAssociation/stimuli/carré.png height=40></img></div><br>","0","","","","","","","","","","","","","","","","","","","","","","","","",""
"","sat_fixationcross","","html-keyboard-response","20","574764","0.0-18.0-0.0","Sting","LOUIS","","","","","","","","","","","","","","","","","","","","","null","<div  style='font-size:500%; position:fixed; text-align: center; top:50%; bottom:50%; right:20%; left:20%'>+</div>","null","","","","","","500","","","","","","","","","","","","","","","","","","",""
"","sat_practicetrial","","html-keyboard-response","21","578806","0.0-18.0-1.0","Sting","LOUIS","","","","","","","","","","","","","","","","","","","","","4041","<div style='bottom:60%; right:20%; left:20%; position:fixed'><img src=https://realitybending.github.io/IllusionGameSelfAssociation/experiment/SelfAssociation/stimuli/carré.png height=20%></img></div><div  style='font-size:500%; position:fixed; text-align: center; top:50%; bottom:50%; right:20%; left:20%'>+</div><div style = ""font-size:300%; text-align: center; position:fixed; top:70%; left:20%""><b>Vous</b></br></br></br></br>v</div><div style = ""font-size:300%; text-align: center; position:fixed; top:70%; right:20%; left:20%""><b>Sting</b></br></br></br></br>b</div><div style = ""font-size:300%; text-align: center; position:fixed; top:70%; right:20%""><b>LOUIS</b></br></br></br></br>n</div>","n","","","","","","","carré","1","LOUIS","LOUIS","true","Friend","","","","","","","","","","","","",""
"","sat_feedback","","html-keyboard-response","22","579309","0.0-18.0-2.0","Sting","LOUIS","","","","","","","","","","","","","","","","","","","","","null","<p style = 'font-size: 300%; color:green'>Correct!</p>","null","","","","","","","","","","","","","","","","","","","","","","","","",""
"","sat_fixationcross","","html-keyboard-response","23","579810","0.0-18.0-0.1","Sting","LOUIS","","","","","","","","","","","","","","","","","","","","","null","<div  style='font-size:500%; position:fixed; text-align: center; top:50%; bottom:50%; right:20%; left:20%'>+</div>","null","","","","","","500","","","","","","","","","","","","","","","","","","",""
"","sat_practicetrial","","html-keyboard-response","24","582034","0.0-18.0-1.1","Sting","LOUIS","","","","","","","","","","","","","","","","","","","","","2223","<div style='bottom:60%; right:20%; left:20%; position:fixed'><img src=https://realitybending.github.io/IllusionGameSelfAssociation/experiment/SelfAssociation/stimuli/triangle.png height=20%></img></div><div  style='font-size:500%; position:fixed; text-align: center; top:50%; bottom:50%; right:20%; left:20%'>+</div><div style = ""font-size:300%; text-align: center; position:fixed; top:70%; left:20%""><b>Vous</b></br></br></br></br>v</div><div style = ""font-size:300%; text-align: center; position:fixed; top:70%; right:20%; left:20%""><b>Sting</b></br></br></br></br>b</div><div style = ""font-size:300%; text-align: center; position:fixed; top:70%; right:20%""><b>LOUIS</b></br></br></br></br>n</div>","v","","","","","","","triangle","2","Vous","Vous","true","Self","","","","","","","","","","","","",""
"","sat_feedback","","html-keyboard-response","25","582536","0.0-18.0-2.1","Sting","LOUIS","","","","","","","","","","","","","","","","","","","","","null","<p style = 'font-size: 300%; color:green'>Correct!</p>","null","","","","","","","","","","","","","","","","","","","","","","","","",""
"","sat_fixationcross","","html-keyboard-response","26","583038","0.0-18.0-0.2","Sting","LOUIS","","","","","","","","","","","","","","","","","","","","","null","<div  style='font-size:500%; position:fixed; text-align: center; top:50%; bottom:50%; right:20%; left:20%'>+</div>","null","","","","","","500","","","","","","","","","","","","","","","","","","",""
"","sat_practicetrial","","html-keyboard-response","27","584704","0.0-18.0-1.2","Sting","LOUIS","","","","","","","","","","","","","","","","","","","","","1665","<div style='bottom:60%; right:20%; left:20%; position:fixed'><img src=https://realitybending.github.io/IllusionGameSelfAssociation/experiment/SelfAssociation/stimuli/cercle.png height=20%></img></div><div  style='font-size:500%; position:fixed; text-align: center; top:50%; bottom:50%; right:20%; left:20%'>+</div><div style = ""font-size:300%; text-align: center; position:fixed; top:70%; left:20%""><b>Vous</b></br></br></br></br>v</div><div style = ""font-size:300%; text-align: center; position:fixed; top:70%; right:20%; left:20%""><b>Sting</b></br></br></br></br>b</div><div style = ""font-size:300%; text-align: center; position:fixed; top:70%; right:20%""><b>LOUIS</b></br></br></br></br>n</div>","b","","","","","","","cercle","3","Sting","Sting","true","Stranger","","","","","","","","","","","","",""
"","sat_feedback","","html-keyboard-response","28","585206","0.0-18.0-2.2","Sting","LOUIS","","","","","","","","","","","","","","","","","","","","","null","<p style = 'font-size: 300%; color:green'>Correct!</p>","null","","","","","","","","","","","","","","","","","","","","","","","","",""
"","sat_fixationcross","","html-keyboard-response","29","585709","0.0-18.0-0.3","Sting","LOUIS","","","","","","","","","","","","","","","","","","","","","null","<div  style='font-size:500%; position:fixed; text-align: center; top:50%; bottom:50%; right:20%; left:20%'>+</div>","null","","","","","","500","","","","","","","","","","","","","","","","","","",""
"","sat_practicetrial","","html-keyboard-response","30","587084","0.0-18.0-1.3","Sting","LOUIS","","","","","","","","","","","","","","","","","","","","","1375","<div style='bottom:60%; right:20%; left:20%; position:fixed'><img src=https://realitybending.github.io/IllusionGameSelfAssociation/experiment/SelfAssociation/stimuli/triangle.png height=20%></img></div><div  style='font-size:500%; position:fixed; text-align: center; top:50%; bottom:50%; right:20%; left:20%'>+</div><div style = ""font-size:300%; text-align: center; position:fixed; top:70%; left:20%""><b>Vous</b></br></br></br></br>v</div><div style = ""font-size:300%; text-align: center; position:fixed; top:70%; right:20%; left:20%""><b>Sting</b></br></br></br></br>b</div><div style = ""font-size:300%; text-align: center; position:fixed; top:70%; right:20%""><b>LOUIS</b></br></br></br></br>n</div>","v","","","","","","","triangle","4","Vous","Vous","true","Self","","","","","","","","","","","","",""
"","sat_feedback","","html-keyboard-response","31","587586","0.0-18.0-2.3","Sting","LOUIS","","","","","","","","","","","","","","","","","","","","","null","<p style = 'font-size: 300%; color:green'>Correct!</p>","null","","","","","","","","","","","","","","","","","","","","","","","","",""
"","sat_fixationcross","","html-keyboard-response","32","588089","0.0-18.0-0.4","Sting","LOUIS","","","","","","","","","","","","","","","","","","","","","null","<div  style='font-size:500%; position:fixed; text-align: center; top:50%; bottom:50%; right:20%; left:20%'>+</div>","null","","","","","","500","","","","","","","","","","","","","","","","","","",""
"","sat_practicetrial","","html-keyboard-response","33","591231","0.0-18.0-1.4","Sting","LOUIS","","","","","","","","","","","","","","","","","","","","","3142","<div style='bottom:60%; right:20%; left:20%; position:fixed'><img src=https://realitybending.github.io/IllusionGameSelfAssociation/experiment/SelfAssociation/stimuli/cercle.png height=20%></img></div><div  style='font-size:500%; position:fixed; text-align: center; top:50%; bottom:50%; right:20%; left:20%'>+</div><div style = ""font-size:300%; text-align: center; position:fixed; top:70%; left:20%""><b>Vous</b></br></br></br></br>v</div><div style = ""font-size:300%; text-align: center; position:fixed; top:70%; right:20%; left:20%""><b>Sting</b></br></br></br></br>b</div><div style = ""font-size:300%; text-align: center; position:fixed; top:70%; right:20%""><b>LOUIS</b></br></br></br></br>n</div>","b","","","","","","","cercle","5","Sting","Sting","true","Stranger","","","","","","","","","","","","",""
"","sat_feedback","","html-keyboard-response","34","591733","0.0-18.0-2.4","Sting","LOUIS","","","","","","","","","","","","","","","","","","","","","null","<p style = 'font-size: 300%; color:green'>Correct!</p>","null","","","","","","","","","","","","","","","","","","","","","","","","",""
"","sat_fixationcross","","html-keyboard-response","35","592235","0.0-18.0-0.5","Sting","LOUIS","","","","","","","","","","","","","","","","","","","","","null","<div  style='font-size:500%; position:fixed; text-align: center; top:50%; bottom:50%; right:20%; left:20%'>+</div>","null","","","","","","500","","","","","","","","","","","","","","","","","","",""
"","sat_practicetrial","","html-keyboard-response","36","592929","0.0-18.0-1.5","Sting","LOUIS","","","","","","","","","","","","","","","","","","","","","694","<div style='bottom:60%; right:20%; left:20%; position:fixed'><img src=https://realitybending.github.io/IllusionGameSelfAssociation/experiment/SelfAssociation/stimuli/cercle.png height=20%></img></div><div  style='font-size:500%; position:fixed; text-align: center; top:50%; bottom:50%; right:20%; left:20%'>+</div><div style = ""font-size:300%; text-align: center; position:fixed; top:70%; left:20%""><b>Vous</b></br></br></br></br>v</div><div style = ""font-size:300%; text-align: center; position:fixed; top:70%; right:20%; left:20%""><b>Sting</b></br></br></br></br>b</div><div style = ""font-size:300%; text-align: center; position:fixed; top:70%; right:20%""><b>LOUIS</b></br></br></br></br>n</div>","b","","","","","","","cercle","6","Sting","Sting","true","Stranger","","","","","","","","","","","","",""
"","sat_feedback","","html-keyboard-response","37","593431","0.0-18.0-2.5","Sting","LOUIS","","","","","","","","","","","","","","","","","","","","","null","<p style = 'font-size: 300%; color:green'>Correct!</p>","null","","","","","","","","","","","","","","","","","","","","","","","","",""
"","sat_fixationcross","","html-keyboard-response","38","593934","0.0-18.0-0.6","Sting","LOUIS","","","","","","","","","","","","","","","","","","","","","null","<div  style='font-size:500%; position:fixed; text-align: center; top:50%; bottom:50%; right:20%; left:20%'>+</div>","null","","","","","","500","","","","","","","","","","","","","","","","","","",""
"","sat_practicetrial","","html-keyboard-response","39","595005","0.0-18.0-1.6","Sting","LOUIS","","","","","","","","","","","","","","","","","","","","","1071","<div style='bottom:60%; right:20%; left:20%; position:fixed'><img src=https://realitybending.github.io/IllusionGameSelfAssociation/experiment/SelfAssociation/stimuli/triangle.png height=20%></img></div><div  style='font-size:500%; position:fixed; text-align: center; top:50%; bottom:50%; right:20%; left:20%'>+</div><div style = ""font-size:300%; text-align: center; position:fixed; top:70%; left:20%""><b>Vous</b></br></br></br></br>v</div><div style = ""font-size:300%; text-align: center; position:fixed; top:70%; right:20%; left:20%""><b>Sting</b></br></br></br></br>b</div><div style = ""font-size:300%; text-align: center; position:fixed; top:70%; right:20%""><b>LOUIS</b></br></br></br></br>n</div>","v","","","","","","","triangle","7","Vous","Vous","true","Self","","","","","","","","","","","","",""
"","sat_feedback","","html-keyboard-response","40","595507","0.0-18.0-2.6","Sting","LOUIS","","","","","","","","","","","","","","","","","","","","","null","<p style = 'font-size: 300%; color:green'>Correct!</p>","null","","","","","","","","","","","","","","","","","","","","","","","","",""
"","sat_fixationcross","","html-keyboard-response","41","596010","0.0-18.0-0.7","Sting","LOUIS","","","","","","","","","","","","","","","","","","","","","null","<div  style='font-size:500%; position:fixed; text-align: center; top:50%; bottom:50%; right:20%; left:20%'>+</div>","null","","","","","","500","","","","","","","","","","","","","","","","","","",""
"","sat_practicetrial","","html-keyboard-response","42","596876","0.0-18.0-1.7","Sting","LOUIS","","","","","","","","","","","","","","","","","","","","","866","<div style='bottom:60%; right:20%; left:20%; position:fixed'><img src=https://realitybending.github.io/IllusionGameSelfAssociation/experiment/SelfAssociation/stimuli/cercle.png height=20%></img></div><div  style='font-size:500%; position:fixed; text-align: center; top:50%; bottom:50%; right:20%; left:20%'>+</div><div style = ""font-size:300%; text-align: center; position:fixed; top:70%; left:20%""><b>Vous</b></br></br></br></br>v</div><div style = ""font-size:300%; text-align: center; position:fixed; top:70%; right:20%; left:20%""><b>Sting</b></br></br></br></br>b</div><div style = ""font-size:300%; text-align: center; position:fixed; top:70%; right:20%""><b>LOUIS</b></br></br></br></br>n</div>","b","","","","","","","cercle","8","Sting","Sting","true","Stranger","","","","","","","","","","","","",""
"","sat_feedback","","html-keyboard-response","43","597377","0.0-18.0-2.7","Sting","LOUIS","","","","","","","","","","","","","","","","","","","","","null","<p style = 'font-size: 300%; color:green'>Correct!</p>","null","","","","","","","","","","","","","","","","","","","","","","","","",""
"","sat_fixationcross","","html-keyboard-response","44","597879","0.0-18.0-0.8","Sting","LOUIS","","","","","","","","","","","","","","","","","","","","","null","<div  style='font-size:500%; position:fixed; text-align: center; top:50%; bottom:50%; right:20%; left:20%'>+</div>","null","","","","","","500","","","","","","","","","","","","","","","","","","",""
"","sat_practicetrial","","html-keyboard-response","45","599090","0.0-18.0-1.8","Sting","LOUIS","","","","","","","","","","","","","","","","","","","","","1210","<div style='bottom:60%; right:20%; left:20%; position:fixed'><img src=https://realitybending.github.io/IllusionGameSelfAssociation/experiment/SelfAssociation/stimuli/carré.png height=20%></img></div><div  style='font-size:500%; position:fixed; text-align: center; top:50%; bottom:50%; right:20%; left:20%'>+</div><div style = ""font-size:300%; text-align: center; position:fixed; top:70%; left:20%""><b>Vous</b></br></br></br></br>v</div><div style = ""font-size:300%; text-align: center; position:fixed; top:70%; right:20%; left:20%""><b>Sting</b></br></br></br></br>b</div><div style = ""font-size:300%; text-align: center; position:fixed; top:70%; right:20%""><b>LOUIS</b></br></br></br></br>n</div>","n","","","","","","","carré","9","LOUIS","LOUIS","true","Friend","","","","","","","","","","","","",""
"","sat_feedback","","html-keyboard-response","46","599592","0.0-18.0-2.8","Sting","LOUIS","","","","","","","","","","","","","","","","","","","","","null","<p style = 'font-size: 300%; color:green'>Correct!</p>","null","","","","","","","","","","","","","","","","","","","","","","","","",""
"","sat_fixationcross","","html-keyboard-response","47","600094","0.0-18.0-0.9","Sting","LOUIS","","","","","","","","","","","","","","","","","","","","","null","<div  style='font-size:500%; position:fixed; text-align: center; top:50%; bottom:50%; right:20%; left:20%'>+</div>","null","","","","","","500","","","","","","","","","","","","","","","","","","",""
"","sat_practicetrial","","html-keyboard-response","48","600729","0.0-18.0-1.9","Sting","LOUIS","","","","","","","","","","","","","","","","","","","","","634","<div style='bottom:60%; right:20%; left:20%; position:fixed'><img src=https://realitybending.github.io/IllusionGameSelfAssociation/experiment/SelfAssociation/stimuli/cercle.png height=20%></img></div><div  style='font-size:500%; position:fixed; text-align: center; top:50%; bottom:50%; right:20%; left:20%'>+</div><div style = ""font-size:300%; text-align: center; position:fixed; top:70%; left:20%""><b>Vous</b></br></br></br></br>v</div><div style = ""font-size:300%; text-align: center; position:fixed; top:70%; right:20%; left:20%""><b>Sting</b></br></br></br></br>b</div><div style = ""font-size:300%; text-align: center; position:fixed; top:70%; right:20%""><b>LOUIS</b></br></br></br></br>n</div>","b","","","","","","","cercle","10","Sting","Sting","true","Stranger","","","","","","","","","","","","",""
"","sat_feedback","","html-keyboard-response","49","601230","0.0-18.0-2.9","Sting","LOUIS","","","","","","","","","","","","","","","","","","","","","null","<p style = 'font-size: 300%; color:green'>Correct!</p>","null","","","","","","","","","","","","","","","","","","","","","","","","",""
"","sat_fixationcross","","html-keyboard-response","50","601732","0.0-18.0-0.10","Sting","LOUIS","","","","","","","","","","","","","","","","","","","","","null","<div  style='font-size:500%; position:fixed; text-align: center; top:50%; bottom:50%; right:20%; left:20%'>+</div>","null","","","","","","500","","","","","","","","","","","","","","","","","","",""
"","sat_practicetrial","","html-keyboard-response","51","602458","0.0-18.0-1.10","Sting","LOUIS","","","","","","","","","","","","","","","","","","","","","724","<div style='bottom:60%; right:20%; left:20%; position:fixed'><img src=https://realitybending.github.io/IllusionGameSelfAssociation/experiment/SelfAssociation/stimuli/cercle.png height=20%></img></div><div  style='font-size:500%; position:fixed; text-align: center; top:50%; bottom:50%; right:20%; left:20%'>+</div><div style = ""font-size:300%; text-align: center; position:fixed; top:70%; left:20%""><b>Vous</b></br></br></br></br>v</div><div style = ""font-size:300%; text-align: center; position:fixed; top:70%; right:20%; left:20%""><b>Sting</b></br></br></br></br>b</div><div style = ""font-size:300%; text-align: center; position:fixed; top:70%; right:20%""><b>LOUIS</b></br></br></br></br>n</div>","b","","","","","","","cercle","11","Sting","Sting","true","Stranger","","","","","","","","","","","","",""
"","sat_feedback","","html-keyboard-response","52","602960","0.0-18.0-2.10","Sting","LOUIS","","","","","","","","","","","","","","","","","","","","","null","<p style = 'font-size: 300%; color:green'>Correct!</p>","null","","","","","","","","","","","","","","","","","","","","","","","","",""
"","sat_fixationcross","","html-keyboard-response","53","603462","0.0-18.0-0.11","Sting","LOUIS","","","","","","","","","","","","","","","","","","","","","null","<div  style='font-size:500%; position:fixed; text-align: center; top:50%; bottom:50%; right:20%; left:20%'>+</div>","null","","","","","","500","","","","","","","","","","","","","","","","","","",""
"","sat_practicetrial","","html-keyboard-response","54","605650","0.0-18.0-1.11","Sting","LOUIS","","","","","","","","","","","","","","","","","","","","","2187","<div style='bottom:60%; right:20%; left:20%; position:fixed'><img src=https://realitybending.github.io/IllusionGameSelfAssociation/experiment/SelfAssociation/stimuli/carré.png height=20%></img></div><div  style='font-size:500%; position:fixed; text-align: center; top:50%; bottom:50%; right:20%; left:20%'>+</div><div style = ""font-size:300%; text-align: center; position:fixed; top:70%; left:20%""><b>Vous</b></br></br></br></br>v</div><div style = ""font-size:300%; text-align: center; position:fixed; top:70%; right:20%; left:20%""><b>Sting</b></br></br></br></br>b</div><div style = ""font-size:300%; text-align: center; position:fixed; top:70%; right:20%""><b>LOUIS</b></br></br></br></br>n</div>","n","","","","","","","carré","12","LOUIS","LOUIS","true","Friend","","","","","","","","","","","","",""
"","sat_feedback","","html-keyboard-response","55","606151","0.0-18.0-2.11","Sting","LOUIS","","","","","","","","","","","","","","","","","","","","","null","<p style = 'font-size: 300%; color:green'>Correct!</p>","null","","","","","","","","","","","","","","","","","","","","","","","","",""
"","sat_fixationcross","","html-keyboard-response","56","606653","0.0-18.0-0.12","Sting","LOUIS","","","","","","","","","","","","","","","","","","","","","null","<div  style='font-size:500%; position:fixed; text-align: center; top:50%; bottom:50%; right:20%; left:20%'>+</div>","null","","","","","","500","","","","","","","","","","","","","","","","","","",""
"","sat_practicetrial","","html-keyboard-response","57","607572","0.0-18.0-1.12","Sting","LOUIS","","","","","","","","","","","","","","","","","","","","","917","<div style='bottom:60%; right:20%; left:20%; position:fixed'><img src=https://realitybending.github.io/IllusionGameSelfAssociation/experiment/SelfAssociation/stimuli/cercle.png height=20%></img></div><div  style='font-size:500%; position:fixed; text-align: center; top:50%; bottom:50%; right:20%; left:20%'>+</div><div style = ""font-size:300%; text-align: center; position:fixed; top:70%; left:20%""><b>Vous</b></br></br></br></br>v</div><div style = ""font-size:300%; text-align: center; position:fixed; top:70%; right:20%; left:20%""><b>Sting</b></br></br></br></br>b</div><div style = ""font-size:300%; text-align: center; position:fixed; top:70%; right:20%""><b>LOUIS</b></br></br></br></br>n</div>","b","","","","","","","cercle","13","Sting","Sting","true","Stranger","","","","","","","","","","","","",""
"","sat_feedback","","html-keyboard-response","58","608074","0.0-18.0-2.12","Sting","LOUIS","","","","","","","","","","","","","","","","","","","","","null","<p style = 'font-size: 300%; color:green'>Correct!</p>","null","","","","","","","","","","","","","","","","","","","","","","","","",""
"","sat_fixationcross","","html-keyboard-response","59","608576","0.0-18.0-0.13","Sting","LOUIS","","","","","","","","","","","","","","","","","","","","","null","<div  style='font-size:500%; position:fixed; text-align: center; top:50%; bottom:50%; right:20%; left:20%'>+</div>","null","","","","","","500","","","","","","","","","","","","","","","","","","",""
"","sat_practicetrial","","html-keyboard-response","60","609834","0.0-18.0-1.13","Sting","LOUIS","","","","","","","","","","","","","","","","","","","","","1257","<div style='bottom:60%; right:20%; left:20%; position:fixed'><img src=https://realitybending.github.io/IllusionGameSelfAssociation/experiment/SelfAssociation/stimuli/carré.png height=20%></img></div><div  style='font-size:500%; position:fixed; text-align: center; top:50%; bottom:50%; right:20%; left:20%'>+</div><div style = ""font-size:300%; text-align: center; position:fixed; top:70%; left:20%""><b>Vous</b></br></br></br></br>v</div><div style = ""font-size:300%; text-align: center; position:fixed; top:70%; right:20%; left:20%""><b>Sting</b></br></br></br></br>b</div><div style = ""font-size:300%; text-align: center; position:fixed; top:70%; right:20%""><b>LOUIS</b></br></br></br></br>n</div>","n","","","","","","","carré","14","LOUIS","LOUIS","true","Friend","","","","","","","","","","","","",""
"","sat_feedback","","html-keyboard-response","61","610335","0.0-18.0-2.13","Sting","LOUIS","","","","","","","","","","","","","","","","","","","","","null","<p style = 'font-size: 300%; color:green'>Correct!</p>","null","","","","","","","","","","","","","","","","","","","","","","","","",""
"","sat_fixationcross","","html-keyboard-response","62","610837","0.0-18.0-0.14","Sting","LOUIS","","","","","","","","","","","","","","","","","","","","","null","<div  style='font-size:500%; position:fixed; text-align: center; top:50%; bottom:50%; right:20%; left:20%'>+</div>","null","","","","","","500","","","","","","","","","","","","","","","","","","",""
"","sat_practicetrial","","html-keyboard-response","63","611869","0.0-18.0-1.14","Sting","LOUIS","","","","","","","","","","","","","","","","","","","","","1030","<div style='bottom:60%; right:20%; left:20%; position:fixed'><img src=https://realitybending.github.io/IllusionGameSelfAssociation/experiment/SelfAssociation/stimuli/carré.png height=20%></img></div><div  style='font-size:500%; position:fixed; text-align: center; top:50%; bottom:50%; right:20%; left:20%'>+</div><div style = ""font-size:300%; text-align: center; position:fixed; top:70%; left:20%""><b>Vous</b></br></br></br></br>v</div><div style = ""font-size:300%; text-align: center; position:fixed; top:70%; right:20%; left:20%""><b>Sting</b></br></br></br></br>b</div><div style = ""font-size:300%; text-align: center; position:fixed; top:70%; right:20%""><b>LOUIS</b></br></br></br></br>n</div>","n","","","","","","","carré","15","LOUIS","LOUIS","true","Friend","","","","","","","","","","","","",""
"","sat_feedback","","html-keyboard-response","64","612371","0.0-18.0-2.14","Sting","LOUIS","","","","","","","","","","","","","","","","","","","","","null","<p style = 'font-size: 300%; color:green'>Correct!</p>","null","","","","","","","","","","","","","","","","","","","","","","","","",""
"","sat_fixationcross","","html-keyboard-response","65","612873","0.0-18.0-0.15","Sting","LOUIS","","","","","","","","","","","","","","","","","","","","","null","<div  style='font-size:500%; position:fixed; text-align: center; top:50%; bottom:50%; right:20%; left:20%'>+</div>","null","","","","","","500","","","","","","","","","","","","","","","","","","",""
"","sat_practicetrial","","html-keyboard-response","66","613916","0.0-18.0-1.15","Sting","LOUIS","","","","","","","","","","","","","","","","","","","","","1043","<div style='bottom:60%; right:20%; left:20%; position:fixed'><img src=https://realitybending.github.io/IllusionGameSelfAssociation/experiment/SelfAssociation/stimuli/carré.png height=20%></img></div><div  style='font-size:500%; position:fixed; text-align: center; top:50%; bottom:50%; right:20%; left:20%'>+</div><div style = ""font-size:300%; text-align: center; position:fixed; top:70%; left:20%""><b>Vous</b></br></br></br></br>v</div><div style = ""font-size:300%; text-align: center; position:fixed; top:70%; right:20%; left:20%""><b>Sting</b></br></br></br></br>b</div><div style = ""font-size:300%; text-align: center; position:fixed; top:70%; right:20%""><b>LOUIS</b></br></br></br></br>n</div>","n","","","","","","","carré","16","LOUIS","LOUIS","true","Friend","","","","","","","","","","","","",""
"","sat_feedback","","html-keyboard-response","67","614417","0.0-18.0-2.15","Sting","LOUIS","","","","","","","","","","","","","","","","","","","","","null","<p style = 'font-size: 300%; color:green'>Correct!</p>","null","","","","","","","","","","","","","","","","","","","","","","","","",""
"","sat_fixationcross","","html-keyboard-response","68","614919","0.0-18.0-0.16","Sting","LOUIS","","","","","","","","","","","","","","","","","","","","","null","<div  style='font-size:500%; position:fixed; text-align: center; top:50%; bottom:50%; right:20%; left:20%'>+</div>","null","","","","","","500","","","","","","","","","","","","","","","","","","",""
"","sat_practicetrial","","html-keyboard-response","69","616804","0.0-18.0-1.16","Sting","LOUIS","","","","","","","","","","","","","","","","","","","","","1884","<div style='bottom:60%; right:20%; left:20%; position:fixed'><img src=https://realitybending.github.io/IllusionGameSelfAssociation/experiment/SelfAssociation/stimuli/cercle.png height=20%></img></div><div  style='font-size:500%; position:fixed; text-align: center; top:50%; bottom:50%; right:20%; left:20%'>+</div><div style = ""font-size:300%; text-align: center; position:fixed; top:70%; left:20%""><b>Vous</b></br></br></br></br>v</div><div style = ""font-size:300%; text-align: center; position:fixed; top:70%; right:20%; left:20%""><b>Sting</b></br></br></br></br>b</div><div style = ""font-size:300%; text-align: center; position:fixed; top:70%; right:20%""><b>LOUIS</b></br></br></br></br>n</div>","b","","","","","","","cercle","17","Sting","Sting","true","Stranger","","","","","","","","","","","","",""
"","sat_feedback","","html-keyboard-response","70","617306","0.0-18.0-2.16","Sting","LOUIS","","","","","","","","","","","","","","","","","","","","","null","<p style = 'font-size: 300%; color:green'>Correct!</p>","null","","","","","","","","","","","","","","","","","","","","","","","","",""
"","sat_fixationcross","","html-keyboard-response","71","617808","0.0-18.0-0.17","Sting","LOUIS","","","","","","","","","","","","","","","","","","","","","null","<div  style='font-size:500%; position:fixed; text-align: center; top:50%; bottom:50%; right:20%; left:20%'>+</div>","null","","","","","","500","","","","","","","","","","","","","","","","","","",""
"","sat_practicetrial","","html-keyboard-response","72","618683","0.0-18.0-1.17","Sting","LOUIS","","","","","","","","","","","","","","","","","","","","","875","<div style='bottom:60%; right:20%; left:20%; position:fixed'><img src=https://realitybending.github.io/IllusionGameSelfAssociation/experiment/SelfAssociation/stimuli/triangle.png height=20%></img></div><div  style='font-size:500%; position:fixed; text-align: center; top:50%; bottom:50%; right:20%; left:20%'>+</div><div style = ""font-size:300%; text-align: center; position:fixed; top:70%; left:20%""><b>Vous</b></br></br></br></br>v</div><div style = ""font-size:300%; text-align: center; position:fixed; top:70%; right:20%; left:20%""><b>Sting</b></br></br></br></br>b</div><div style = ""font-size:300%; text-align: center; position:fixed; top:70%; right:20%""><b>LOUIS</b></br></br></br></br>n</div>","v","","","","","","","triangle","18","Vous","Vous","true","Self","","","","","","","","","","","","",""
"","sat_feedback","","html-keyboard-response","73","619185","0.0-18.0-2.17","Sting","LOUIS","","","","","","","","","","","","","","","","","","","","","null","<p style = 'font-size: 300%; color:green'>Correct!</p>","null","","","","","","","","","","","","","","","","","","","","","","","","",""
"","sat_fixationcross","","html-keyboard-response","74","619687","0.0-18.0-0.18","Sting","LOUIS","","","","","","","","","","","","","","","","","","","","","null","<div  style='font-size:500%; position:fixed; text-align: center; top:50%; bottom:50%; right:20%; left:20%'>+</div>","null","","","","","","500","","","","","","","","","","","","","","","","","","",""
"","sat_practicetrial","","html-keyboard-response","75","620277","0.0-18.0-1.18","Sting","LOUIS","","","","","","","","","","","","","","","","","","","","","590","<div style='bottom:60%; right:20%; left:20%; position:fixed'><img src=https://realitybending.github.io/IllusionGameSelfAssociation/experiment/SelfAssociation/stimuli/cercle.png height=20%></img></div><div  style='font-size:500%; position:fixed; text-align: center; top:50%; bottom:50%; right:20%; left:20%'>+</div><div style = ""font-size:300%; text-align: center; position:fixed; top:70%; left:20%""><b>Vous</b></br></br></br></br>v</div><div style = ""font-size:300%; text-align: center; position:fixed; top:70%; right:20%; left:20%""><b>Sting</b></br></br></br></br>b</div><div style = ""font-size:300%; text-align: center; position:fixed; top:70%; right:20%""><b>LOUIS</b></br></br></br></br>n</div>","b","","","","","","","cercle","19","Sting","Sting","true","Stranger","","","","","","","","","","","","",""
"","sat_practice_end","","html-button-response","76","622316","0.0-19.0","Sting","LOUIS","","","","","","","","","","","","","","","","","","","","","2038","<h1>Bravo!</h1><p>Vous avez terminé l'entraînement.</p>","0","","","","","","","","","","","","","","","","","","","","","","","","",""
"","matching_instructions_fr","","html-button-response","77","646722","0.0-20.0","Sting","LOUIS","","","","","","","","","","","","","","","","","","","","","24405","<h1>Instructions</h1><p>Dans cette phase du jeu, les formes précédentes vont être ré-associées aux personnes.</p><p>Vous devez décider aussi rapidement et précisément que possible si la forme présentée correspond à la personne nouvellement associée.</p><p>Si la paire forme-personne est <b>correcte</b>, appuyez sur <b>'i'</b>.</p><p>Si la paire forme-personne est <b>incorrecte</b>, appuyez sur <b>'e'</b></p><br><p>Bonne chance!</p>","0","","","","","","","","","","","","","","","","","","","","","","","","",""
"","SAT_assignmentscreen","","html-button-response","78","660054","0.0-21.0","Sting","LOUIS","","","","","","","","","","","","","","","","","","","","","13331","<h1>Instructions</h1><div id ='align-middle'><b>Vous</b> serez représenté(e) par un  <b>carré</b>  <img src= https://realitybending.github.io/IllusionGameSelfAssociation/experiment/SelfAssociation/stimuli/carré.png height=40></img></div><br><div id ='align-middle'><b>Sting</b> sera représenté(e) par un  <b>triangle</b>  <img src= https://realitybending.github.io/IllusionGameSelfAssociation/experiment/SelfAssociation/stimuli/triangle.png height=40></img></div><br><div id = 'align-middle'><b>LOUIS</b> sera représenté(e) par un  <b>cercle</b>  <img src= https://realitybending.github.io/IllusionGameSelfAssociation/experiment/SelfAssociation/stimuli/cercle.png height=40></img></div><br>","0","","","","","","","","","","","","","","","","","","","","","","","","",""
"","sat_fixationcross","","html-keyboard-response","79","660556","0.0-22.0-0.0","Sting","LOUIS","","","","","","","","","","","","","","","","","","","","","null","<div  style='font-size:500%; position:fixed; text-align: center; top:50%; bottom:50%; right:20%; left:20%'>+</div>","null","","","","","","500","","","","","","","","","","","","","","","","","","",""
"","sat_trial","","html-keyboard-response","80","664758","0.0-22.0-1.0","Sting","LOUIS","","","","","","","","","","","","","","","","","","","","","null","<div style='bottom:60%; right:20%; left:20%; position:fixed'><img src=https://realitybending.github.io/IllusionGameSelfAssociation/experiment/SelfAssociation/stimuli/cercle.png height=20%></img></div><div  style='font-size:500%; position:fixed; text-align: center; top:50%; bottom:50%; right:20%; left:20%'>+</div><div style = ""font-size:300%; text-align: center; position:fixed; top:70%; right:20%; left:20%""><b>Sting</div>","null","","","","","","","cercle","1","null","mismatch","false","","Stranger","1","","","","","","","","","","",""
"","sat_feedback","","html-keyboard-response","81","665261","0.0-22.0-2.0","Sting","LOUIS","","","","","","","","","","","","","","","","","","","","","null","<p style = 'font-size: 300%; color:blue'>Trop long!</p>","null","","","","","","","","","","","","","","","","","","","","","","","","",""
"","sat_fixationcross","","html-keyboard-response","82","665763","0.0-22.0-0.1","Sting","LOUIS","","","","","","","","","","","","","","","","","","","","","null","<div  style='font-size:500%; position:fixed; text-align: center; top:50%; bottom:50%; right:20%; left:20%'>+</div>","null","","","","","","500","","","","","","","","","","","","","","","","","","",""
"","sat_trial","","html-keyboard-response","83","667047","0.0-22.0-1.1","Sting","LOUIS","","","","","","","","","","","","","","","","","","","","","1283","<div style='bottom:60%; right:20%; left:20%; position:fixed'><img src=https://realitybending.github.io/IllusionGameSelfAssociation/experiment/SelfAssociation/stimuli/carré.png height=20%></img></div><div  style='font-size:500%; position:fixed; text-align: center; top:50%; bottom:50%; right:20%; left:20%'>+</div><div style = ""font-size:300%; text-align: center; position:fixed; top:70%; right:20%; left:20%""><b>LOUIS</div>","i","","","","","","","carré","2","match","mismatch","false","","Friend","1","","","","","","","","","","",""
"","sat_feedback","","html-keyboard-response","84","667549","0.0-22.0-2.1","Sting","LOUIS","","","","","","","","","","","","","","","","","","","","","null","<p style = 'font-size: 300%; color:red'>Incorrect!</p>","null","","","","","","","","","","","","","","","","","","","","","","","","",""
"","sat_fixationcross","","html-keyboard-response","85","668051","0.0-22.0-0.2","Sting","LOUIS","","","","","","","","","","","","","","","","","","","","","null","<div  style='font-size:500%; position:fixed; text-align: center; top:50%; bottom:50%; right:20%; left:20%'>+</div>","null","","","","","","500","","","","","","","","","","","","","","","","","","",""
"","sat_trial","","html-keyboard-response","86","668887","0.0-22.0-1.2","Sting","LOUIS","","","","","","","","","","","","","","","","","","","","","835","<div style='bottom:60%; right:20%; left:20%; position:fixed'><img src=https://realitybending.github.io/IllusionGameSelfAssociation/experiment/SelfAssociation/stimuli/cercle.png height=20%></img></div><div  style='font-size:500%; position:fixed; text-align: center; top:50%; bottom:50%; right:20%; left:20%'>+</div><div style = ""font-size:300%; text-align: center; position:fixed; top:70%; right:20%; left:20%""><b>Vous</div>","e","","","","","","","cercle","3","mismatch","mismatch","true","","Self","1","","","","","","","","","","",""
"","sat_feedback","","html-keyboard-response","87","669389","0.0-22.0-2.2","Sting","LOUIS","","","","","","","","","","","","","","","","","","","","","null","<p style = 'font-size: 300%; color:green'>Correct!</p>","null","","","","","","","","","","","","","","","","","","","","","","","","",""
"","sat_fixationcross","","html-keyboard-response","88","669891","0.0-22.0-0.3","Sting","LOUIS","","","","","","","","","","","","","","","","","","","","","null","<div  style='font-size:500%; position:fixed; text-align: center; top:50%; bottom:50%; right:20%; left:20%'>+</div>","null","","","","","","500","","","","","","","","","","","","","","","","","","",""
"","sat_trial","","html-keyboard-response","89","670958","0.0-22.0-1.3","Sting","LOUIS","","","","","","","","","","","","","","","","","","","","","1066","<div style='bottom:60%; right:20%; left:20%; position:fixed'><img src=https://realitybending.github.io/IllusionGameSelfAssociation/experiment/SelfAssociation/stimuli/cercle.png height=20%></img></div><div  style='font-size:500%; position:fixed; text-align: center; top:50%; bottom:50%; right:20%; left:20%'>+</div><div style = ""font-size:300%; text-align: center; position:fixed; top:70%; right:20%; left:20%""><b>Sting</div>","i","","","","","","","cercle","4","match","mismatch","false","","Stranger","1","","","","","","","","","","",""
"","sat_feedback","","html-keyboard-response","90","671459","0.0-22.0-2.3","Sting","LOUIS","","","","","","","","","","","","","","","","","","","","","null","<p style = 'font-size: 300%; color:red'>Incorrect!</p>","null","","","","","","","","","","","","","","","","","","","","","","","","",""
"","sat_fixationcross","","html-keyboard-response","91","671961","0.0-22.0-0.4","Sting","LOUIS","","","","","","","","","","","","","","","","","","","","","null","<div  style='font-size:500%; position:fixed; text-align: center; top:50%; bottom:50%; right:20%; left:20%'>+</div>","null","","","","","","500","","","","","","","","","","","","","","","","","","",""
"","sat_trial","","html-keyboard-response","92","672734","0.0-22.0-1.4","Sting","LOUIS","","","","","","","","","","","","","","","","","","","","","771","<div style='bottom:60%; right:20%; left:20%; position:fixed'><img src=https://realitybending.github.io/IllusionGameSelfAssociation/experiment/SelfAssociation/stimuli/triangle.png height=20%></img></div><div  style='font-size:500%; position:fixed; text-align: center; top:50%; bottom:50%; right:20%; left:20%'>+</div><div style = ""font-size:300%; text-align: center; position:fixed; top:70%; right:20%; left:20%""><b>LOUIS</div>","e","","","","","","","triangle","5","mismatch","mismatch","true","","Friend","1","","","","","","","","","","",""
"","sat_feedback","","html-keyboard-response","93","673234","0.0-22.0-2.4","Sting","LOUIS","","","","","","","","","","","","","","","","","","","","","null","<p style = 'font-size: 300%; color:green'>Correct!</p>","null","","","","","","","","","","","","","","","","","","","","","","","","",""
"","sat_fixationcross","","html-keyboard-response","94","673736","0.0-22.0-0.5","Sting","LOUIS","","","","","","","","","","","","","","","","","","","","","null","<div  style='font-size:500%; position:fixed; text-align: center; top:50%; bottom:50%; right:20%; left:20%'>+</div>","null","","","","","","500","","","","","","","","","","","","","","","","","","",""
"","sat_trial","","html-keyboard-response","95","674845","0.0-22.0-1.5","Sting","LOUIS","","","","","","","","","","","","","","","","","","","","","1107","<div style='bottom:60%; right:20%; left:20%; position:fixed'><img src=https://realitybending.github.io/IllusionGameSelfAssociation/experiment/SelfAssociation/stimuli/carré.png height=20%></img></div><div  style='font-size:500%; position:fixed; text-align: center; top:50%; bottom:50%; right:20%; left:20%'>+</div><div style = ""font-size:300%; text-align: center; position:fixed; top:70%; right:20%; left:20%""><b>LOUIS</div>","i","","","","","","","carré","6","match","mismatch","false","","Friend","1","","","","","","","","","","",""
"","sat_feedback","","html-keyboard-response","96","675346","0.0-22.0-2.5","Sting","LOUIS","","","","","","","","","","","","","","","","","","","","","null","<p style = 'font-size: 300%; color:red'>Incorrect!</p>","null","","","","","","","","","","","","","","","","","","","","","","","","",""
"","sat_fixationcross","","html-keyboard-response","97","675848","0.0-22.0-0.6","Sting","LOUIS","","","","","","","","","","","","","","","","","","","","","null","<div  style='font-size:500%; position:fixed; text-align: center; top:50%; bottom:50%; right:20%; left:20%'>+</div>","null","","","","","","500","","","","","","","","","","","","","","","","","","",""
"","sat_trial","","html-keyboard-response","98","676540","0.0-22.0-1.6","Sting","LOUIS","","","","","","","","","","","","","","","","","","","","","691","<div style='bottom:60%; right:20%; left:20%; position:fixed'><img src=https://realitybending.github.io/IllusionGameSelfAssociation/experiment/SelfAssociation/stimuli/triangle.png height=20%></img></div><div  style='font-size:500%; position:fixed; text-align: center; top:50%; bottom:50%; right:20%; left:20%'>+</div><div style = ""font-size:300%; text-align: center; position:fixed; top:70%; right:20%; left:20%""><b>LOUIS</div>","i","","","","","","","triangle","7","match","mismatch","false","","Friend","1","","","","","","","","","","",""
"","sat_feedback","","html-keyboard-response","99","677041","0.0-22.0-2.6","Sting","LOUIS","","","","","","","","","","","","","","","","","","","","","null","<p style = 'font-size: 300%; color:red'>Incorrect!</p>","null","","","","","","","","","","","","","","","","","","","","","","","","",""
"","sat_fixationcross","","html-keyboard-response","100","677543","0.0-22.0-0.7","Sting","LOUIS","","","","","","","","","","","","","","","","","","","","","null","<div  style='font-size:500%; position:fixed; text-align: center; top:50%; bottom:50%; right:20%; left:20%'>+</div>","null","","","","","","500","","","","","","","","","","","","","","","","","","",""
"","sat_trial","","html-keyboard-response","101","677872","0.0-22.0-1.7","Sting","LOUIS","","","","","","","","","","","","","","","","","","","","","328","<div style='bottom:60%; right:20%; left:20%; position:fixed'><img src=https://realitybending.github.io/IllusionGameSelfAssociation/experiment/SelfAssociation/stimuli/cercle.png height=20%></img></div><div  style='font-size:500%; position:fixed; text-align: center; top:50%; bottom:50%; right:20%; left:20%'>+</div><div style = ""font-size:300%; text-align: center; position:fixed; top:70%; right:20%; left:20%""><b>Vous</div>","e","","","","","","","cercle","8","mismatch","mismatch","true","","Self","1","","","","","","","","","","",""
"","sat_feedback","","html-keyboard-response","102","678373","0.0-22.0-2.7","Sting","LOUIS","","","","","","","","","","","","","","","","","","","","","null","<p style = 'font-size: 300%; color:green'>Correct!</p>","null","","","","","","","","","","","","","","","","","","","","","","","","",""
"","sat_fixationcross","","html-keyboard-response","103","678875","0.0-22.0-0.8","Sting","LOUIS","","","","","","","","","","","","","","","","","","","","","null","<div  style='font-size:500%; position:fixed; text-align: center; top:50%; bottom:50%; right:20%; left:20%'>+</div>","null","","","","","","500","","","","","","","","","","","","","","","","","","",""
"","sat_trial","","html-keyboard-response","104","679371","0.0-22.0-1.8","Sting","LOUIS","","","","","","","","","","","","","","","","","","","","","495","<div style='bottom:60%; right:20%; left:20%; position:fixed'><img src=https://realitybending.github.io/IllusionGameSelfAssociation/experiment/SelfAssociation/stimuli/cercle.png height=20%></img></div><div  style='font-size:500%; position:fixed; text-align: center; top:50%; bottom:50%; right:20%; left:20%'>+</div><div style = ""font-size:300%; text-align: center; position:fixed; top:70%; right:20%; left:20%""><b>Vous</div>","e","","","","","","","cercle","9","mismatch","mismatch","true","","Self","1","","","","","","","","","","",""
"","sat_feedback","","html-keyboard-response","105","679872","0.0-22.0-2.8","Sting","LOUIS","","","","","","","","","","","","","","","","","","","","","null","<p style = 'font-size: 300%; color:green'>Correct!</p>","null","","","","","","","","","","","","","","","","","","","","","","","","",""
"","sat_fixationcross","","html-keyboard-response","106","680374","0.0-22.0-0.9","Sting","LOUIS","","","","","","","","","","","","","","","","","","","","","null","<div  style='font-size:500%; position:fixed; text-align: center; top:50%; bottom:50%; right:20%; left:20%'>+</div>","null","","","","","","500","","","","","","","","","","","","","","","","","","",""
"","sat_trial","","html-keyboard-response","107","681385","0.0-22.0-1.9","Sting","LOUIS","","","","","","","","","","","","","","","","","","","","","1010","<div style='bottom:60%; right:20%; left:20%; position:fixed'><img src=https://realitybending.github.io/IllusionGameSelfAssociation/experiment/SelfAssociation/stimuli/triangle.png height=20%></img></div><div  style='font-size:500%; position:fixed; text-align: center; top:50%; bottom:50%; right:20%; left:20%'>+</div><div style = ""font-size:300%; text-align: center; position:fixed; top:70%; right:20%; left:20%""><b>Sting</div>","i","","","","","","","triangle","10","match","match","true","","Stranger","1","","","","","","","","","","",""
"","sat_feedback","","html-keyboard-response","108","681887","0.0-22.0-2.9","Sting","LOUIS","","","","","","","","","","","","","","","","","","","","","null","<p style = 'font-size: 300%; color:green'>Correct!</p>","null","","","","","","","","","","","","","","","","","","","","","","","","",""
"","sat_fixationcross","","html-keyboard-response","109","682389","0.0-22.0-0.10","Sting","LOUIS","","","","","","","","","","","","","","","","","","","","","null","<div  style='font-size:500%; position:fixed; text-align: center; top:50%; bottom:50%; right:20%; left:20%'>+</div>","null","","","","","","500","","","","","","","","","","","","","","","","","","",""
"","sat_trial","","html-keyboard-response","110","683602","0.0-22.0-1.10","Sting","LOUIS","","","","","","","","","","","","","","","","","","","","","1212","<div style='bottom:60%; right:20%; left:20%; position:fixed'><img src=https://realitybending.github.io/IllusionGameSelfAssociation/experiment/SelfAssociation/stimuli/cercle.png height=20%></img></div><div  style='font-size:500%; position:fixed; text-align: center; top:50%; bottom:50%; right:20%; left:20%'>+</div><div style = ""font-size:300%; text-align: center; position:fixed; top:70%; right:20%; left:20%""><b>Vous</div>","e","","","","","","","cercle","11","mismatch","mismatch","true","","Self","1","","","","","","","","","","",""
"","sat_feedback","","html-keyboard-response","111","684104","0.0-22.0-2.10","Sting","LOUIS","","","","","","","","","","","","","","","","","","","","","null","<p style = 'font-size: 300%; color:green'>Correct!</p>","null","","","","","","","","","","","","","","","","","","","","","","","","",""
"","sat_fixationcross","","html-keyboard-response","112","684606","0.0-22.0-0.11","Sting","LOUIS","","","","","","","","","","","","","","","","","","","","","null","<div  style='font-size:500%; position:fixed; text-align: center; top:50%; bottom:50%; right:20%; left:20%'>+</div>","null","","","","","","500","","","","","","","","","","","","","","","","","","",""
"","sat_trial","","html-keyboard-response","113","685428","0.0-22.0-1.11","Sting","LOUIS","","","","","","","","","","","","","","","","","","","","","821","<div style='bottom:60%; right:20%; left:20%; position:fixed'><img src=https://realitybending.github.io/IllusionGameSelfAssociation/experiment/SelfAssociation/stimuli/carré.png height=20%></img></div><div  style='font-size:500%; position:fixed; text-align: center; top:50%; bottom:50%; right:20%; left:20%'>+</div><div style = ""font-size:300%; text-align: center; position:fixed; top:70%; right:20%; left:20%""><b>Sting</div>","i","","","","","","","carré","12","match","mismatch","false","","Stranger","1","","","","","","","","","","",""
"","sat_feedback","","html-keyboard-response","114","685930","0.0-22.0-2.11","Sting","LOUIS","","","","","","","","","","","","","","","","","","","","","null","<p style = 'font-size: 300%; color:red'>Incorrect!</p>","null","","","","","","","","","","","","","","","","","","","","","","","","",""
"","sat_fixationcross","","html-keyboard-response","115","686432","0.0-22.0-0.12","Sting","LOUIS","","","","","","","","","","","","","","","","","","","","","null","<div  style='font-size:500%; position:fixed; text-align: center; top:50%; bottom:50%; right:20%; left:20%'>+</div>","null","","","","","","500","","","","","","","","","","","","","","","","","","",""
"","sat_trial","","html-keyboard-response","116","688510","0.0-22.0-1.12","Sting","LOUIS","","","","","","","","","","","","","","","","","","","","","2077","<div style='bottom:60%; right:20%; left:20%; position:fixed'><img src=https://realitybending.github.io/IllusionGameSelfAssociation/experiment/SelfAssociation/stimuli/cercle.png height=20%></img></div><div  style='font-size:500%; position:fixed; text-align: center; top:50%; bottom:50%; right:20%; left:20%'>+</div><div style = ""font-size:300%; text-align: center; position:fixed; top:70%; right:20%; left:20%""><b>Sting</div>","e","","","","","","","cercle","13","mismatch","mismatch","true","","Stranger","1","","","","","","","","","","",""
"","sat_feedback","","html-keyboard-response","117","689011","0.0-22.0-2.12","Sting","LOUIS","","","","","","","","","","","","","","","","","","","","","null","<p style = 'font-size: 300%; color:green'>Correct!</p>","null","","","","","","","","","","","","","","","","","","","","","","","","",""
"","sat_fixationcross","","html-keyboard-response","118","689512","0.0-22.0-0.13","Sting","LOUIS","","","","","","","","","","","","","","","","","","","","","null","<div  style='font-size:500%; position:fixed; text-align: center; top:50%; bottom:50%; right:20%; left:20%'>+</div>","null","","","","","","500","","","","","","","","","","","","","","","","","","",""
"","sat_trial","","html-keyboard-response","119","690959","0.0-22.0-1.13","Sting","LOUIS","","","","","","","","","","","","","","","","","","","","","1446","<div style='bottom:60%; right:20%; left:20%; position:fixed'><img src=https://realitybending.github.io/IllusionGameSelfAssociation/experiment/SelfAssociation/stimuli/cercle.png height=20%></img></div><div  style='font-size:500%; position:fixed; text-align: center; top:50%; bottom:50%; right:20%; left:20%'>+</div><div style = ""font-size:300%; text-align: center; position:fixed; top:70%; right:20%; left:20%""><b>LOUIS</div>","e","","","","","","","cercle","14","mismatch","match","false","","Friend","1","","","","","","","","","","",""
"","sat_feedback","","html-keyboard-response","120","691461","0.0-22.0-2.13","Sting","LOUIS","","","","","","","","","","","","","","","","","","","","","null","<p style = 'font-size: 300%; color:red'>Incorrect!</p>","null","","","","","","","","","","","","","","","","","","","","","","","","",""
"","sat_fixationcross","","html-keyboard-response","121","691963","0.0-22.0-0.14","Sting","LOUIS","","","","","","","","","","","","","","","","","","","","","null","<div  style='font-size:500%; position:fixed; text-align: center; top:50%; bottom:50%; right:20%; left:20%'>+</div>","null","","","","","","500","","","","","","","","","","","","","","","","","","",""
"","sat_trial","","html-keyboard-response","122","692262","0.0-22.0-1.14","Sting","LOUIS","","","","","","","","","","","","","","","","","","","","","298","<div style='bottom:60%; right:20%; left:20%; position:fixed'><img src=https://realitybending.github.io/IllusionGameSelfAssociation/experiment/SelfAssociation/stimuli/triangle.png height=20%></img></div><div  style='font-size:500%; position:fixed; text-align: center; top:50%; bottom:50%; right:20%; left:20%'>+</div><div style = ""font-size:300%; text-align: center; position:fixed; top:70%; right:20%; left:20%""><b>LOUIS</div>","i","","","","","","","triangle","15","match","mismatch","false","","Friend","1","","","","","","","","","","",""
"","sat_feedback","","html-keyboard-response","123","692764","0.0-22.0-2.14","Sting","LOUIS","","","","","","","","","","","","","","","","","","","","","null","<p style = 'font-size: 300%; color:red'>Incorrect!</p>","null","","","","","","","","","","","","","","","","","","","","","","","","",""
"","sat_fixationcross","","html-keyboard-response","124","693266","0.0-22.0-0.15","Sting","LOUIS","","","","","","","","","","","","","","","","","","","","","null","<div  style='font-size:500%; position:fixed; text-align: center; top:50%; bottom:50%; right:20%; left:20%'>+</div>","null","","","","","","500","","","","","","","","","","","","","","","","","","",""
"","sat_trial","","html-keyboard-response","125","694800","0.0-22.0-1.15","Sting","LOUIS","","","","","","","","","","","","","","","","","","","","","1533","<div style='bottom:60%; right:20%; left:20%; position:fixed'><img src=https://realitybending.github.io/IllusionGameSelfAssociation/experiment/SelfAssociation/stimuli/triangle.png height=20%></img></div><div  style='font-size:500%; position:fixed; text-align: center; top:50%; bottom:50%; right:20%; left:20%'>+</div><div style = ""font-size:300%; text-align: center; position:fixed; top:70%; right:20%; left:20%""><b>Vous</div>","e","","","","","","","triangle","16","mismatch","mismatch","true","","Self","1","","","","","","","","","","",""
"","sat_feedback","","html-keyboard-response","126","695301","0.0-22.0-2.15","Sting","LOUIS","","","","","","","","","","","","","","","","","","","","","null","<p style = 'font-size: 300%; color:green'>Correct!</p>","null","","","","","","","","","","","","","","","","","","","","","","","","",""
"","sat_fixationcross","","html-keyboard-response","127","695803","0.0-22.0-0.16","Sting","LOUIS","","","","","","","","","","","","","","","","","","","","","null","<div  style='font-size:500%; position:fixed; text-align: center; top:50%; bottom:50%; right:20%; left:20%'>+</div>","null","","","","","","500","","","","","","","","","","","","","","","","","","",""
"","sat_trial","","html-keyboard-response","128","696255","0.0-22.0-1.16","Sting","LOUIS","","","","","","","","","","","","","","","","","","","","","450","<div style='bottom:60%; right:20%; left:20%; position:fixed'><img src=https://realitybending.github.io/IllusionGameSelfAssociation/experiment/SelfAssociation/stimuli/triangle.png height=20%></img></div><div  style='font-size:500%; position:fixed; text-align: center; top:50%; bottom:50%; right:20%; left:20%'>+</div><div style = ""font-size:300%; text-align: center; position:fixed; top:70%; right:20%; left:20%""><b>Sting</div>","i","","","","","","","triangle","17","match","match","true","","Stranger","1","","","","","","","","","","",""
"","sat_feedback","","html-keyboard-response","129","696757","0.0-22.0-2.16","Sting","LOUIS","","","","","","","","","","","","","","","","","","","","","null","<p style = 'font-size: 300%; color:green'>Correct!</p>","null","","","","","","","","","","","","","","","","","","","","","","","","",""
"","sat_fixationcross","","html-keyboard-response","130","697259","0.0-22.0-0.17","Sting","LOUIS","","","","","","","","","","","","","","","","","","","","","null","<div  style='font-size:500%; position:fixed; text-align: center; top:50%; bottom:50%; right:20%; left:20%'>+</div>","null","","","","","","500","","","","","","","","","","","","","","","","","","",""
"","sat_trial","","html-keyboard-response","131","697655","0.0-22.0-1.17","Sting","LOUIS","","","","","","","","","","","","","","","","","","","","","395","<div style='bottom:60%; right:20%; left:20%; position:fixed'><img src=https://realitybending.github.io/IllusionGameSelfAssociation/experiment/SelfAssociation/stimuli/cercle.png height=20%></img></div><div  style='font-size:500%; position:fixed; text-align: center; top:50%; bottom:50%; right:20%; left:20%'>+</div><div style = ""font-size:300%; text-align: center; position:fixed; top:70%; right:20%; left:20%""><b>Sting</div>","e","","","","","","","cercle","18","mismatch","mismatch","true","","Stranger","1","","","","","","","","","","",""
"","sat_feedback","","html-keyboard-response","132","698156","0.0-22.0-2.17","Sting","LOUIS","","","","","","","","","","","","","","","","","","","","","null","<p style = 'font-size: 300%; color:green'>Correct!</p>","null","","","","","","","","","","","","","","","","","","","","","","","","",""
"","sat_fixationcross","","html-keyboard-response","133","698657","0.0-22.0-0.18","Sting","LOUIS","","","","","","","","","","","","","","","","","","","","","null","<div  style='font-size:500%; position:fixed; text-align: center; top:50%; bottom:50%; right:20%; left:20%'>+</div>","null","","","","","","500","","","","","","","","","","","","","","","","","","",""
"","sat_trial","","html-keyboard-response","134","700405","0.0-22.0-1.18","Sting","LOUIS","","","","","","","","","","","","","","","","","","","","","1747","<div style='bottom:60%; right:20%; left:20%; position:fixed'><img src=https://realitybending.github.io/IllusionGameSelfAssociation/experiment/SelfAssociation/stimuli/cercle.png height=20%></img></div><div  style='font-size:500%; position:fixed; text-align: center; top:50%; bottom:50%; right:20%; left:20%'>+</div><div style = ""font-size:300%; text-align: center; position:fixed; top:70%; right:20%; left:20%""><b>Vous</div>","i","","","","","","","cercle","19","match","mismatch","false","","Self","1","","","","","","","","","","",""
"","sat_feedback","","html-keyboard-response","135","700907","0.0-22.0-2.18","Sting","LOUIS","","","","","","","","","","","","","","","","","","","","","null","<p style = 'font-size: 300%; color:red'>Incorrect!</p>","null","","","","","","","","","","","","","","","","","","","","","","","","",""
"","sat_fixationcross","","html-keyboard-response","136","701409","0.0-22.0-0.19","Sting","LOUIS","","","","","","","","","","","","","","","","","","","","","null","<div  style='font-size:500%; position:fixed; text-align: center; top:50%; bottom:50%; right:20%; left:20%'>+</div>","null","","","","","","500","","","","","","","","","","","","","","","","","","",""
"","sat_trial","","html-keyboard-response","137","701749","0.0-22.0-1.19","Sting","LOUIS","","","","","","","","","","","","","","","","","","","","","339","<div style='bottom:60%; right:20%; left:20%; position:fixed'><img src=https://realitybending.github.io/IllusionGameSelfAssociation/experiment/SelfAssociation/stimuli/triangle.png height=20%></img></div><div  style='font-size:500%; position:fixed; text-align: center; top:50%; bottom:50%; right:20%; left:20%'>+</div><div style = ""font-size:300%; text-align: center; position:fixed; top:70%; right:20%; left:20%""><b>Sting</div>","e","","","","","","","triangle","20","mismatch","match","false","","Stranger","1","","","","","","","","","","",""
"","sat_feedback","","html-keyboard-response","138","702251","0.0-22.0-2.19","Sting","LOUIS","","","","","","","","","","","","","","","","","","","","","null","<p style = 'font-size: 300%; color:red'>Incorrect!</p>","null","","","","","","","","","","","","","","","","","","","","","","","","",""
"","sat_fixationcross","","html-keyboard-response","139","702752","0.0-22.0-0.20","Sting","LOUIS","","","","","","","","","","","","","","","","","","","","","null","<div  style='font-size:500%; position:fixed; text-align: center; top:50%; bottom:50%; right:20%; left:20%'>+</div>","null","","","","","","500","","","","","","","","","","","","","","","","","","",""
"","sat_trial","","html-keyboard-response","140","702784","0.0-22.0-1.20","Sting","LOUIS","","","","","","","","","","","","","","","","","","","","","31","<div style='bottom:60%; right:20%; left:20%; position:fixed'><img src=https://realitybending.github.io/IllusionGameSelfAssociation/experiment/SelfAssociation/stimuli/triangle.png height=20%></img></div><div  style='font-size:500%; position:fixed; text-align: center; top:50%; bottom:50%; right:20%; left:20%'>+</div><div style = ""font-size:300%; text-align: center; position:fixed; top:70%; right:20%; left:20%""><b>Vous</div>","e","","","","","","","triangle","21","mismatch","mismatch","true","","Self","1","","","","","","","","","","",""
"","sat_feedback","","html-keyboard-response","141","703285","0.0-22.0-2.20","Sting","LOUIS","","","","","","","","","","","","","","","","","","","","","null","<p style = 'font-size: 300%; color:green'>Correct!</p>","null","","","","","","","","","","","","","","","","","","","","","","","","",""
"","sat_fixationcross","","html-keyboard-response","142","703787","0.0-22.0-0.21","Sting","LOUIS","","","","","","","","","","","","","","","","","","","","","null","<div  style='font-size:500%; position:fixed; text-align: center; top:50%; bottom:50%; right:20%; left:20%'>+</div>","null","","","","","","500","","","","","","","","","","","","","","","","","","",""
"","sat_trial","","html-keyboard-response","143","704947","0.0-22.0-1.21","Sting","LOUIS","","","","","","","","","","","","","","","","","","","","","1160","<div style='bottom:60%; right:20%; left:20%; position:fixed'><img src=https://realitybending.github.io/IllusionGameSelfAssociation/experiment/SelfAssociation/stimuli/cercle.png height=20%></img></div><div  style='font-size:500%; position:fixed; text-align: center; top:50%; bottom:50%; right:20%; left:20%'>+</div><div style = ""font-size:300%; text-align: center; position:fixed; top:70%; right:20%; left:20%""><b>Sting</div>","e","","","","","","","cercle","22","mismatch","mismatch","true","","Stranger","1","","","","","","","","","","",""
"","sat_feedback","","html-keyboard-response","144","705448","0.0-22.0-2.21","Sting","LOUIS","","","","","","","","","","","","","","","","","","","","","null","<p style = 'font-size: 300%; color:green'>Correct!</p>","null","","","","","","","","","","","","","","","","","","","","","","","","",""
"","sat_fixationcross","","html-keyboard-response","145","705950","0.0-22.0-0.22","Sting","LOUIS","","","","","","","","","","","","","","","","","","","","","null","<div  style='font-size:500%; position:fixed; text-align: center; top:50%; bottom:50%; right:20%; left:20%'>+</div>","null","","","","","","500","","","","","","","","","","","","","","","","","","",""
"","sat_trial","","html-keyboard-response","146","707768","0.0-22.0-1.22","Sting","LOUIS","","","","","","","","","","","","","","","","","","","","","1817","<div style='bottom:60%; right:20%; left:20%; position:fixed'><img src=https://realitybending.github.io/IllusionGameSelfAssociation/experiment/SelfAssociation/stimuli/carré.png height=20%></img></div><div  style='font-size:500%; position:fixed; text-align: center; top:50%; bottom:50%; right:20%; left:20%'>+</div><div style = ""font-size:300%; text-align: center; position:fixed; top:70%; right:20%; left:20%""><b>Vous</div>","i","","","","","","","carré","23","match","match","true","","Self","1","","","","","","","","","","",""
"","sat_feedback","","html-keyboard-response","147","708270","0.0-22.0-2.22","Sting","LOUIS","","","","","","","","","","","","","","","","","","","","","null","<p style = 'font-size: 300%; color:green'>Correct!</p>","null","","","","","","","","","","","","","","","","","","","","","","","","",""
"","sat_fixationcross","","html-keyboard-response","148","708772","0.0-22.0-0.23","Sting","LOUIS","","","","","","","","","","","","","","","","","","","","","null","<div  style='font-size:500%; position:fixed; text-align: center; top:50%; bottom:50%; right:20%; left:20%'>+</div>","null","","","","","","500","","","","","","","","","","","","","","","","","","",""
"","sat_trial","","html-keyboard-response","149","710415","0.0-22.0-1.23","Sting","LOUIS","","","","","","","","","","","","","","","","","","","","","1642","<div style='bottom:60%; right:20%; left:20%; position:fixed'><img src=https://realitybending.github.io/IllusionGameSelfAssociation/experiment/SelfAssociation/stimuli/cercle.png height=20%></img></div><div  style='font-size:500%; position:fixed; text-align: center; top:50%; bottom:50%; right:20%; left:20%'>+</div><div style = ""font-size:300%; text-align: center; position:fixed; top:70%; right:20%; left:20%""><b>Sting</div>","i","","","","","","","cercle","24","match","mismatch","false","","Stranger","1","","","","","","","","","","",""
"","sat_feedback","","html-keyboard-response","150","710917","0.0-22.0-2.23","Sting","LOUIS","","","","","","","","","","","","","","","","","","","","","null","<p style = 'font-size: 300%; color:red'>Incorrect!</p>","null","","","","","","","","","","","","","","","","","","","","","","","","",""
"","sat_fixationcross","","html-keyboard-response","151","711419","0.0-22.0-0.24","Sting","LOUIS","","","","","","","","","","","","","","","","","","","","","null","<div  style='font-size:500%; position:fixed; text-align: center; top:50%; bottom:50%; right:20%; left:20%'>+</div>","null","","","","","","500","","","","","","","","","","","","","","","","","","",""
"","sat_trial","","html-keyboard-response","152","712845","0.0-22.0-1.24","Sting","LOUIS","","","","","","","","","","","","","","","","","","","","","1426","<div style='bottom:60%; right:20%; left:20%; position:fixed'><img src=https://realitybending.github.io/IllusionGameSelfAssociation/experiment/SelfAssociation/stimuli/triangle.png height=20%></img></div><div  style='font-size:500%; position:fixed; text-align: center; top:50%; bottom:50%; right:20%; left:20%'>+</div><div style = ""font-size:300%; text-align: center; position:fixed; top:70%; right:20%; left:20%""><b>LOUIS</div>","e","","","","","","","triangle","25","mismatch","mismatch","true","","Friend","1","","","","","","","","","","",""
"","sat_feedback","","html-keyboard-response","153","713347","0.0-22.0-2.24","Sting","LOUIS","","","","","","","","","","","","","","","","","","","","","null","<p style = 'font-size: 300%; color:green'>Correct!</p>","null","","","","","","","","","","","","","","","","","","","","","","","","",""
"","sat_fixationcross","","html-keyboard-response","154","713849","0.0-22.0-0.25","Sting","LOUIS","","","","","","","","","","","","","","","","","","","","","null","<div  style='font-size:500%; position:fixed; text-align: center; top:50%; bottom:50%; right:20%; left:20%'>+</div>","null","","","","","","500","","","","","","","","","","","","","","","","","","",""
"","sat_trial","","html-keyboard-response","155","715260","0.0-22.0-1.25","Sting","LOUIS","","","","","","","","","","","","","","","","","","","","","1410","<div style='bottom:60%; right:20%; left:20%; position:fixed'><img src=https://realitybending.github.io/IllusionGameSelfAssociation/experiment/SelfAssociation/stimuli/carré.png height=20%></img></div><div  style='font-size:500%; position:fixed; text-align: center; top:50%; bottom:50%; right:20%; left:20%'>+</div><div style = ""font-size:300%; text-align: center; position:fixed; top:70%; right:20%; left:20%""><b>Vous</div>","e","","","","","","","carré","26","mismatch","match","false","","Self","1","","","","","","","","","","",""
"","sat_feedback","","html-keyboard-response","156","715762","0.0-22.0-2.25","Sting","LOUIS","","","","","","","","","","","","","","","","","","","","","null","<p style = 'font-size: 300%; color:red'>Incorrect!</p>","null","","","","","","","","","","","","","","","","","","","","","","","","",""
"","sat_fixationcross","","html-keyboard-response","157","716264","0.0-22.0-0.26","Sting","LOUIS","","","","","","","","","","","","","","","","","","","","","null","<div  style='font-size:500%; position:fixed; text-align: center; top:50%; bottom:50%; right:20%; left:20%'>+</div>","null","","","","","","500","","","","","","","","","","","","","","","","","","",""
"","sat_trial","","html-keyboard-response","158","716618","0.0-22.0-1.26","Sting","LOUIS","","","","","","","","","","","","","","","","","","","","","353","<div style='bottom:60%; right:20%; left:20%; position:fixed'><img src=https://realitybending.github.io/IllusionGameSelfAssociation/experiment/SelfAssociation/stimuli/cercle.png height=20%></img></div><div  style='font-size:500%; position:fixed; text-align: center; top:50%; bottom:50%; right:20%; left:20%'>+</div><div style = ""font-size:300%; text-align: center; position:fixed; top:70%; right:20%; left:20%""><b>Sting</div>","e","","","","","","","cercle","27","mismatch","mismatch","true","","Stranger","1","","","","","","","","","","",""
"","sat_feedback","","html-keyboard-response","159","717119","0.0-22.0-2.26","Sting","LOUIS","","","","","","","","","","","","","","","","","","","","","null","<p style = 'font-size: 300%; color:green'>Correct!</p>","null","","","","","","","","","","","","","","","","","","","","","","","","",""
"","sat_fixationcross","","html-keyboard-response","160","717621","0.0-22.0-0.27","Sting","LOUIS","","","","","","","","","","","","","","","","","","","","","null","<div  style='font-size:500%; position:fixed; text-align: center; top:50%; bottom:50%; right:20%; left:20%'>+</div>","null","","","","","","500","","","","","","","","","","","","","","","","","","",""
"","sat_trial","","html-keyboard-response","161","721087","0.0-22.0-1.27","Sting","LOUIS","","","","","","","","","","","","","","","","","","","","","3465","<div style='bottom:60%; right:20%; left:20%; position:fixed'><img src=https://realitybending.github.io/IllusionGameSelfAssociation/experiment/SelfAssociation/stimuli/carré.png height=20%></img></div><div  style='font-size:500%; position:fixed; text-align: center; top:50%; bottom:50%; right:20%; left:20%'>+</div><div style = ""font-size:300%; text-align: center; position:fixed; top:70%; right:20%; left:20%""><b>Vous</div>","e","","","","","","","carré","28","mismatch","match","false","","Self","1","","","","","","","","","","",""
"","sat_feedback","","html-keyboard-response","162","721589","0.0-22.0-2.27","Sting","LOUIS","","","","","","","","","","","","","","","","","","","","","null","<p style = 'font-size: 300%; color:red'>Incorrect!</p>","null","","","","","","","","","","","","","","","","","","","","","","","","",""
"","sat_fixationcross","","html-keyboard-response","163","722091","0.0-22.0-0.28","Sting","LOUIS","","","","","","","","","","","","","","","","","","","","","null","<div  style='font-size:500%; position:fixed; text-align: center; top:50%; bottom:50%; right:20%; left:20%'>+</div>","null","","","","","","500","","","","","","","","","","","","","","","","","","",""
"","sat_trial","","html-keyboard-response","164","723929","0.0-22.0-1.28","Sting","LOUIS","","","","","","","","","","","","","","","","","","","","","1838","<div style='bottom:60%; right:20%; left:20%; position:fixed'><img src=https://realitybending.github.io/IllusionGameSelfAssociation/experiment/SelfAssociation/stimuli/cercle.png height=20%></img></div><div  style='font-size:500%; position:fixed; text-align: center; top:50%; bottom:50%; right:20%; left:20%'>+</div><div style = ""font-size:300%; text-align: center; position:fixed; top:70%; right:20%; left:20%""><b>LOUIS</div>","i","","","","","","","cercle","29","match","match","true","","Friend","1","","","","","","","","","","",""
"","sat_feedback","","html-keyboard-response","165","724431","0.0-22.0-2.28","Sting","LOUIS","","","","","","","","","","","","","","","","","","","","","null","<p style = 'font-size: 300%; color:green'>Correct!</p>","null","","","","","","","","","","","","","","","","","","","","","","","","",""
"","sat_fixationcross","","html-keyboard-response","166","724933","0.0-22.0-0.29","Sting","LOUIS","","","","","","","","","","","","","","","","","","","","","null","<div  style='font-size:500%; position:fixed; text-align: center; top:50%; bottom:50%; right:20%; left:20%'>+</div>","null","","","","","","500","","","","","","","","","","","","","","","","","","",""
"","sat_trial","","html-keyboard-response","167","727688","0.0-22.0-1.29","Sting","LOUIS","","","","","","","","","","","","","","","","","","","","","2754","<div style='bottom:60%; right:20%; left:20%; position:fixed'><img src=https://realitybending.github.io/IllusionGameSelfAssociation/experiment/SelfAssociation/stimuli/triangle.png height=20%></img></div><div  style='font-size:500%; position:fixed; text-align: center; top:50%; bottom:50%; right:20%; left:20%'>+</div><div style = ""font-size:300%; text-align: center; position:fixed; top:70%; right:20%; left:20%""><b>LOUIS</div>","i","","","","","","","triangle","30","match","mismatch","false","","Friend","1","","","","","","","","","","",""
"","sat_feedback","","html-keyboard-response","168","728190","0.0-22.0-2.29","Sting","LOUIS","","","","","","","","","","","","","","","","","","","","","null","<p style = 'font-size: 300%; color:red'>Incorrect!</p>","null","","","","","","","","","","","","","","","","","","","","","","","","",""
"","sat_fixationcross","","html-keyboard-response","169","728692","0.0-22.0-0.30","Sting","LOUIS","","","","","","","","","","","","","","","","","","","","","null","<div  style='font-size:500%; position:fixed; text-align: center; top:50%; bottom:50%; right:20%; left:20%'>+</div>","null","","","","","","500","","","","","","","","","","","","","","","","","","",""
"","sat_trial","","html-keyboard-response","170","729752","0.0-22.0-1.30","Sting","LOUIS","","","","","","","","","","","","","","","","","","","","","1059","<div style='bottom:60%; right:20%; left:20%; position:fixed'><img src=https://realitybending.github.io/IllusionGameSelfAssociation/experiment/SelfAssociation/stimuli/triangle.png height=20%></img></div><div  style='font-size:500%; position:fixed; text-align: center; top:50%; bottom:50%; right:20%; left:20%'>+</div><div style = ""font-size:300%; text-align: center; position:fixed; top:70%; right:20%; left:20%""><b>Sting</div>","i","","","","","","","triangle","31","match","match","true","","Stranger","1","","","","","","","","","","",""
"","sat_feedback","","html-keyboard-response","171","730253","0.0-22.0-2.30","Sting","LOUIS","","","","","","","","","","","","","","","","","","","","","null","<p style = 'font-size: 300%; color:green'>Correct!</p>","null","","","","","","","","","","","","","","","","","","","","","","","","",""
"","sat_fixationcross","","html-keyboard-response","172","730755","0.0-22.0-0.31","Sting","LOUIS","","","","","","","","","","","","","","","","","","","","","null","<div  style='font-size:500%; position:fixed; text-align: center; top:50%; bottom:50%; right:20%; left:20%'>+</div>","null","","","","","","500","","","","","","","","","","","","","","","","","","",""
"","sat_trial","","html-keyboard-response","173","732513","0.0-22.0-1.31","Sting","LOUIS","","","","","","","","","","","","","","","","","","","","","1757","<div style='bottom:60%; right:20%; left:20%; position:fixed'><img src=https://realitybending.github.io/IllusionGameSelfAssociation/experiment/SelfAssociation/stimuli/triangle.png height=20%></img></div><div  style='font-size:500%; position:fixed; text-align: center; top:50%; bottom:50%; right:20%; left:20%'>+</div><div style = ""font-size:300%; text-align: center; position:fixed; top:70%; right:20%; left:20%""><b>Vous</div>","e","","","","","","","triangle","32","mismatch","mismatch","true","","Self","1","","","","","","","","","","",""
"","sat_feedback","","html-keyboard-response","174","733015","0.0-22.0-2.31","Sting","LOUIS","","","","","","","","","","","","","","","","","","","","","null","<p style = 'font-size: 300%; color:green'>Correct!</p>","null","","","","","","","","","","","","","","","","","","","","","","","","",""
"","sat_fixationcross","","html-keyboard-response","175","733517","0.0-22.0-0.32","Sting","LOUIS","","","","","","","","","","","","","","","","","","","","","null","<div  style='font-size:500%; position:fixed; text-align: center; top:50%; bottom:50%; right:20%; left:20%'>+</div>","null","","","","","","500","","","","","","","","","","","","","","","","","","",""
"","sat_trial","","html-keyboard-response","176","735349","0.0-22.0-1.32","Sting","LOUIS","","","","","","","","","","","","","","","","","","","","","1831","<div style='bottom:60%; right:20%; left:20%; position:fixed'><img src=https://realitybending.github.io/IllusionGameSelfAssociation/experiment/SelfAssociation/stimuli/cercle.png height=20%></img></div><div  style='font-size:500%; position:fixed; text-align: center; top:50%; bottom:50%; right:20%; left:20%'>+</div><div style = ""font-size:300%; text-align: center; position:fixed; top:70%; right:20%; left:20%""><b>Vous</div>","e","","","","","","","cercle","33","mismatch","mismatch","true","","Self","1","","","","","","","","","","",""
"","sat_feedback","","html-keyboard-response","177","735851","0.0-22.0-2.32","Sting","LOUIS","","","","","","","","","","","","","","","","","","","","","null","<p style = 'font-size: 300%; color:green'>Correct!</p>","null","","","","","","","","","","","","","","","","","","","","","","","","",""
"","sat_fixationcross","","html-keyboard-response","178","736352","0.0-22.0-0.33","Sting","LOUIS","","","","","","","","","","","","","","","","","","","","","null","<div  style='font-size:500%; position:fixed; text-align: center; top:50%; bottom:50%; right:20%; left:20%'>+</div>","null","","","","","","500","","","","","","","","","","","","","","","","","","",""
"","sat_trial","","html-keyboard-response","179","737603","0.0-22.0-1.33","Sting","LOUIS","","","","","","","","","","","","","","","","","","","","","1250","<div style='bottom:60%; right:20%; left:20%; position:fixed'><img src=https://realitybending.github.io/IllusionGameSelfAssociation/experiment/SelfAssociation/stimuli/carré.png height=20%></img></div><div  style='font-size:500%; position:fixed; text-align: center; top:50%; bottom:50%; right:20%; left:20%'>+</div><div style = ""font-size:300%; text-align: center; position:fixed; top:70%; right:20%; left:20%""><b>Sting</div>","e","","","","","","","carré","34","mismatch","mismatch","true","","Stranger","1","","","","","","","","","","",""
"","sat_feedback","","html-keyboard-response","180","738105","0.0-22.0-2.33","Sting","LOUIS","","","","","","","","","","","","","","","","","","","","","null","<p style = 'font-size: 300%; color:green'>Correct!</p>","null","","","","","","","","","","","","","","","","","","","","","","","","",""
"","sat_fixationcross","","html-keyboard-response","181","738607","0.0-22.0-0.34","Sting","LOUIS","","","","","","","","","","","","","","","","","","","","","null","<div  style='font-size:500%; position:fixed; text-align: center; top:50%; bottom:50%; right:20%; left:20%'>+</div>","null","","","","","","500","","","","","","","","","","","","","","","","","","",""
"","sat_trial","","html-keyboard-response","182","739712","0.0-22.0-1.34","Sting","LOUIS","","","","","","","","","","","","","","","","","","","","","1103","<div style='bottom:60%; right:20%; left:20%; position:fixed'><img src=https://realitybending.github.io/IllusionGameSelfAssociation/experiment/SelfAssociation/stimuli/triangle.png height=20%></img></div><div  style='font-size:500%; position:fixed; text-align: center; top:50%; bottom:50%; right:20%; left:20%'>+</div><div style = ""font-size:300%; text-align: center; position:fixed; top:70%; right:20%; left:20%""><b>Vous</div>","i","","","","","","","triangle","35","match","mismatch","false","","Self","1","","","","","","","","","","",""
"","sat_feedback","","html-keyboard-response","183","740214","0.0-22.0-2.34","Sting","LOUIS","","","","","","","","","","","","","","","","","","","","","null","<p style = 'font-size: 300%; color:red'>Incorrect!</p>","null","","","","","","","","","","","","","","","","","","","","","","","","",""
"","sat_fixationcross","","html-keyboard-response","184","740715","0.0-22.0-0.35","Sting","LOUIS","","","","","","","","","","","","","","","","","","","","","null","<div  style='font-size:500%; position:fixed; text-align: center; top:50%; bottom:50%; right:20%; left:20%'>+</div>","null","","","","","","500","","","","","","","","","","","","","","","","","","",""
"","sat_trial","","html-keyboard-response","185","741230","0.0-22.0-1.35","Sting","LOUIS","","","","","","","","","","","","","","","","","","","","","514","<div style='bottom:60%; right:20%; left:20%; position:fixed'><img src=https://realitybending.github.io/IllusionGameSelfAssociation/experiment/SelfAssociation/stimuli/carré.png height=20%></img></div><div  style='font-size:500%; position:fixed; text-align: center; top:50%; bottom:50%; right:20%; left:20%'>+</div><div style = ""font-size:300%; text-align: center; position:fixed; top:70%; right:20%; left:20%""><b>Vous</div>","e","","","","","","","carré","36","mismatch","match","false","","Self","1","","","","","","","","","","",""
"","sat_feedback","","html-keyboard-response","186","741732","0.0-22.0-2.35","Sting","LOUIS","","","","","","","","","","","","","","","","","","","","","null","<p style = 'font-size: 300%; color:red'>Incorrect!</p>","null","","","","","","","","","","","","","","","","","","","","","","","","",""
"","sat_fixationcross","","html-keyboard-response","187","742234","0.0-22.0-0.36","Sting","LOUIS","","","","","","","","","","","","","","","","","","","","","null","<div  style='font-size:500%; position:fixed; text-align: center; top:50%; bottom:50%; right:20%; left:20%'>+</div>","null","","","","","","500","","","","","","","","","","","","","","","","","","",""
"","sat_trial","","html-keyboard-response","188","742239","0.0-22.0-1.36","Sting","LOUIS","","","","","","","","","","","","","","","","","","","","","5","<div style='bottom:60%; right:20%; left:20%; position:fixed'><img src=https://realitybending.github.io/IllusionGameSelfAssociation/experiment/SelfAssociation/stimuli/cercle.png height=20%></img></div><div  style='font-size:500%; position:fixed; text-align: center; top:50%; bottom:50%; right:20%; left:20%'>+</div><div style = ""font-size:300%; text-align: center; position:fixed; top:70%; right:20%; left:20%""><b>LOUIS</div>","e","","","","","","","cercle","37","mismatch","match","false","","Friend","1","","","","","","","","","","",""
"","sat_feedback","","html-keyboard-response","189","742741","0.0-22.0-2.36","Sting","LOUIS","","","","","","","","","","","","","","","","","","","","","null","<p style = 'font-size: 300%; color:red'>Incorrect!</p>","null","","","","","","","","","","","","","","","","","","","","","","","","",""
"","sat_fixationcross","","html-keyboard-response","190","743242","0.0-22.0-0.37","Sting","LOUIS","","","","","","","","","","","","","","","","","","","","","null","<div  style='font-size:500%; position:fixed; text-align: center; top:50%; bottom:50%; right:20%; left:20%'>+</div>","null","","","","","","500","","","","","","","","","","","","","","","","","","",""
"","sat_trial","","html-keyboard-response","191","744001","0.0-22.0-1.37","Sting","LOUIS","","","","","","","","","","","","","","","","","","","","","758","<div style='bottom:60%; right:20%; left:20%; position:fixed'><img src=https://realitybending.github.io/IllusionGameSelfAssociation/experiment/SelfAssociation/stimuli/carré.png height=20%></img></div><div  style='font-size:500%; position:fixed; text-align: center; top:50%; bottom:50%; right:20%; left:20%'>+</div><div style = ""font-size:300%; text-align: center; position:fixed; top:70%; right:20%; left:20%""><b>LOUIS</div>","i","","","","","","","carré","38","match","mismatch","false","","Friend","1","","","","","","","","","","",""
"","sat_feedback","","html-keyboard-response","192","744502","0.0-22.0-2.37","Sting","LOUIS","","","","","","","","","","","","","","","","","","","","","null","<p style = 'font-size: 300%; color:red'>Incorrect!</p>","null","","","","","","","","","","","","","","","","","","","","","","","","",""
"","sat_fixationcross","","html-keyboard-response","193","745004","0.0-22.0-0.38","Sting","LOUIS","","","","","","","","","","","","","","","","","","","","","null","<div  style='font-size:500%; position:fixed; text-align: center; top:50%; bottom:50%; right:20%; left:20%'>+</div>","null","","","","","","500","","","","","","","","","","","","","","","","","","",""
"","sat_trial","","html-keyboard-response","194","745967","0.0-22.0-1.38","Sting","LOUIS","","","","","","","","","","","","","","","","","","","","","962","<div style='bottom:60%; right:20%; left:20%; position:fixed'><img src=https://realitybending.github.io/IllusionGameSelfAssociation/experiment/SelfAssociation/stimuli/carré.png height=20%></img></div><div  style='font-size:500%; position:fixed; text-align: center; top:50%; bottom:50%; right:20%; left:20%'>+</div><div style = ""font-size:300%; text-align: center; position:fixed; top:70%; right:20%; left:20%""><b>Vous</div>","e","","","","","","","carré","39","mismatch","match","false","","Self","1","","","","","","","","","","",""
"","sat_feedback","","html-keyboard-response","195","746469","0.0-22.0-2.38","Sting","LOUIS","","","","","","","","","","","","","","","","","","","","","null","<p style = 'font-size: 300%; color:red'>Incorrect!</p>","null","","","","","","","","","","","","","","","","","","","","","","","","",""
"","sat_fixationcross","","html-keyboard-response","196","746971","0.0-22.0-0.39","Sting","LOUIS","","","","","","","","","","","","","","","","","","","","","null","<div  style='font-size:500%; position:fixed; text-align: center; top:50%; bottom:50%; right:20%; left:20%'>+</div>","null","","","","","","500","","","","","","","","","","","","","","","","","","",""
"","sat_trial","","html-keyboard-response","197","747847","0.0-22.0-1.39","Sting","LOUIS","","","","","","","","","","","","","","","","","","","","","876","<div style='bottom:60%; right:20%; left:20%; position:fixed'><img src=https://realitybending.github.io/IllusionGameSelfAssociation/experiment/SelfAssociation/stimuli/triangle.png height=20%></img></div><div  style='font-size:500%; position:fixed; text-align: center; top:50%; bottom:50%; right:20%; left:20%'>+</div><div style = ""font-size:300%; text-align: center; position:fixed; top:70%; right:20%; left:20%""><b>Sting</div>","i","","","","","","","triangle","40","match","match","true","","Stranger","1","","","","","","","","","","",""
"","sat_feedback","","html-keyboard-response","198","748349","0.0-22.0-2.39","Sting","LOUIS","","","","","","","","","","","","","","","","","","","","","null","<p style = 'font-size: 300%; color:green'>Correct!</p>","null","","","","","","","","","","","","","","","","","","","","","","","","",""
"","sat_fixationcross","","html-keyboard-response","199","748851","0.0-22.0-0.40","Sting","LOUIS","","","","","","","","","","","","","","","","","","","","","null","<div  style='font-size:500%; position:fixed; text-align: center; top:50%; bottom:50%; right:20%; left:20%'>+</div>","null","","","","","","500","","","","","","","","","","","","","","","","","","",""
"","sat_trial","","html-keyboard-response","200","750304","0.0-22.0-1.40","Sting","LOUIS","","","","","","","","","","","","","","","","","","","","","1452","<div style='bottom:60%; right:20%; left:20%; position:fixed'><img src=https://realitybending.github.io/IllusionGameSelfAssociation/experiment/SelfAssociation/stimuli/cercle.png height=20%></img></div><div  style='font-size:500%; position:fixed; text-align: center; top:50%; bottom:50%; right:20%; left:20%'>+</div><div style = ""font-size:300%; text-align: center; position:fixed; top:70%; right:20%; left:20%""><b>LOUIS</div>","i","","","","","","","cercle","41","match","match","true","","Friend","1","","","","","","","","","","",""
"","sat_feedback","","html-keyboard-response","201","750805","0.0-22.0-2.40","Sting","LOUIS","","","","","","","","","","","","","","","","","","","","","null","<p style = 'font-size: 300%; color:green'>Correct!</p>","null","","","","","","","","","","","","","","","","","","","","","","","","",""
"","sat_fixationcross","","html-keyboard-response","202","751307","0.0-22.0-0.41","Sting","LOUIS","","","","","","","","","","","","","","","","","","","","","null","<div  style='font-size:500%; position:fixed; text-align: center; top:50%; bottom:50%; right:20%; left:20%'>+</div>","null","","","","","","500","","","","","","","","","","","","","","","","","","",""
