"success","screen","group","trial_type","trial_index","time_elapsed","internal_node_id","label_stranger","label_friend","width","height","webaudio","browser","browser_version","mobile","os","fullscreen","vsync_rate","webcam","microphone","date","time","screen_height","screen_width","researcher","sona_id","prolific_id","study_id","session_id","rt","stimulus","response","question_order","timeout","failed_images","failed_audio","failed_video","trial_duration","shape","trial_number","answer","answer_correct","correct","condition","label_condition","block_number","file","block","correct_response","Illusion_Type","Illusion_Strength","Illusion_Difference","isi","fixation_cross","type","illusion_strength","illusion_difference"
"true","fullscreen","control_T0","fullscreen","0","3435","0.0-0.0","Bono","bridget","","","","","","","","","","","","","","","","","","","","","","","","","","","","","","","","","","","","","","","","","","","","","","","",""
"","browser_info","","browser-check","1","4449","0.0-1.0","Bono","bridget","1920","947","true","firefox","133.0.0","false","Windows 10","true","60.06","true","false","22/12/2024","09:06:04","947","1920","","","66c1f27b1dd11c25daf1cdf0","65e72b0a27a1d8bd15a851fe","6767b584cec3cd778dfbecc2","","","","","","","","","","","","","","","","","","","","","","","","","","","",""
"","consent","","html-button-response","2","8868","0.0-2.0","Bono","bridget","","","","","","","","","","","","","","","","","","","","","4413","<img src='https://u-paris.fr/wp-content/uploads/2022/03/Universite_Paris-Cite-logo.jpeg' width='300px' align='right'/><br><br><br><br><br><h1>Consent form</h1><p align='left'>In this study, you will have to complete two questionnaires and two tasks.</p><p align='left'>The questionnaires are about your daily psychological functioning, and the tasks are two games to measure your association skills and sensitivity to visual illusions.</p><p align='left'>The questionnaires and tasks must be completed alone. <b>Your participation is confidential and your answers will be anonymized.</b> We do not collect your IP address or any other identifying information.</p><p align='left'>Your data are very valuable to us. In participating, you will contribute to scientific progress. <b>In participating, you accept to follow the instructions and to supply honest answers.</b> You can also refuse to partake without any justification and with absolutely no consequences.</p><p align='left'>If you don't want to participate, or if you want to leave the study, you can simply close your browser.</p><p align='left'>The entire study takes approximately 40 minutes, with questionnaires in between parts of the tasks. Please, stay focused until the screen confirming that your data are saved appears.</p><p align='left'><br><sub><sup>If you have any questions regarding the study, you can email Baptiste Fauvel (baptiste.fauvel@u-paris.fr). This study has been reviewed and approved by the ethical committee of the University of Paris .</sup></sub></p>","0","","","","","","","","","","","","","","","","","","","","","","","","",""
"","demographics_1","","survey-multi-choice","3","1014983","0.0-3.0-0.0","Bono","bridget","","","","","","","","","","","","","","","","","","","","","1006111","","{""sex"":""Male"",""student"":"""",""education"":""University (masters) <sub><sup>or equivalent</sup></sub>"",""language"":""Native""}","[0,1,2,3]","","","","","","","","","","","","","","","","","","","","","","","",""
"","demographics_2","","survey-text","4","1031920","0.0-3.0-1.0","Bono","bridget","","","","","","","","","","","","","","","","","","","","","16932","","{""age"":""42"",""country"":""South Africa""}","","","","","","","","","","","","","","","","","","","","","","","","",""
"","","","html-button-response","5","1040444","0.0-4.0","Bono","bridget","","","","","","","","","","","","","","","","","","","","","8522","<p style=""font-size:18px; color:black;"">Have you <b>ever</b> been diagnosed with any of the following pathologies ?</p>","0","","","","","","","","","","","","","","","","","","","","","","","","",""
"","","","survey-text","6","1047460","0.0-5.0-0.0","Bono","bridget","","","","","","","","","","","","","","","","","","","","","7014","","{""Q0"":""anxiety""}","","","","","","","","","","","","","","","","","","","","","","","","",""
"","","","html-button-response","7","1054110","0.0-6.0","Bono","bridget","","","","","","","","","","","","","","","","","","","","","6649","<p style=""font-size:18px; color:black;"">Are you <b>currently</b> diagnosed with any of the following pathologies ?</p>","0","","","","","","","","","","","","","","","","","","","","","","","","",""
"","","","survey-text","8","1068058","0.0-7.0-0.0","Bono","bridget","","","","","","","","","","","","","","","","","","","","","13946","","{""Q0"":""anxiety disorder""}","","","","","","","","","","","","","","","","","","","","","","","","",""
"","","","html-button-response","9","1071190","0.0-8.0","Bono","bridget","","","","","","","","","","","","","","","","","","","","","3131","<p style=""font-size:18px; color:black;"">Do you meditate regularly? E.g. at least once a week?</p>","0","","","","","","","","","","","","","","","","","","","","","","","","",""
"","","","survey-text","10","1079311","0.0-9.0-0.0","Bono","bridget","","","","","","","","","","","","","","","","","","","","","8120","","{""Q0"":""3""}","","","","","","","","","","","","","","","","","","","","","","","","",""
"","","","survey-text","11","1086119","0.0-9.0-1.0","Bono","bridget","","","","","","","","","","","","","","","","","","","","","6807","","{""Q0"":""8""}","","","","","","","","","","","","","","","","","","","","","","","","",""
"","","","survey-text","12","1093373","0.0-9.0-2.0","Bono","bridget","","","","","","","","","","","","","","","","","","","","","7252","","{""Q0"":""30""}","","","","","","","","","","","","","","","","","","","","","","","","",""
"","","","survey-multi-select","13","1099236","0.0-9.0-3.0","Bono","bridget","","","","","","","","","","","","","","","","","","","","","5861","","{""medTrad"":[""Yoga"",""Mindfulness""]}","[0]","","","","","","","","","","","","","","","","","","","","","","","",""
"","PsychFreq_Eng","","survey-multi-choice","14","1108652","0.0-10.0","Bono","bridget","","","","","","","","","","","","","","","","","","","","","9414","","{""psych_freq_english"":""Between 6 and 10 times""}","[0]","","","","","","","","","","","","","","","","","","","","","","","",""
"true","","","preload","15","1108931","0.0-11.0","Bono","bridget","","","","","","","","","","","","","","","","","","","","","","","","","false","[]","[]","[]","","","","","","","","","","","","","","","","","","","",""
"","SAT_instructions_general","","html-button-response","16","1121188","0.0-12.0","Bono","bridget","","","","","","","","","","","","","","","","","","","","","12257","<h1>Shape-Label Association Game</h1><p>In this task, you will be shown some <b>shapes</b> that will be assigned to a <b>label</b> (You, Your Best Friend and a Stranger).</p><p>To personalize this game to your own experience, you will first select who you want the friend and the stranger to be.</p>","0","","","","","","","","","","","","","","","","","","","","","","","","",""
"","SAT_strangerlabel","","survey-multi-choice","17","1127227","0.0-13.0","Bono","bridget","","","","","","","","","","","","","","","","","","","","","6037","","{""label_stranger"":""Bono""}","[0]","","","","","","","","","","","","","","","","","","","","","","","",""
"","SAT_friendlabel","","survey-text","18","1137945","0.0-14.0","Bono","bridget","","","","","","","","","","","","","","","","","","","","","10718","","{""label_friend"":""bridget""}","","","","","","","","","","","","","","","","","","","","","","","","",""
"","SAT_instructions_practice","","html-button-response","19","1199274","0.0-15.0","Bono","bridget","","","","","","","","","","","","","","","","","","","","","61329","<h1>Practice</h1><p>Each label (i.e., You, Best Friend, Stranger) will be assigned to a specific shape (circle, square or triangle)</p><p>During the practice phase, you will be presented with one of the shapes above a fixation cross, together with the three labels below the fixation cross.</p><p>Your task is to select the label that corresponds with the presented shape as quickly and accurately as possible</p><p>If the correct label is on the <b>left</b>, press <b>'v'</b>.</p><p>If the correct label is in the <b>middle</b>, press <b>'b'</b>.</p><p>If the correct label is on the <b>right</b>, press <b>'n'</b>.</p><br>","0","","","","","","","","","","","","","","","","","","","","","","","","",""
"","SAT_assignmentscreen","","html-button-response","20","1214376","0.0-16.0","Bono","bridget","","","","","","","","","","","","","","","","","","","","","15100","<h1>Instructions</h1><div id ='align-middle'><b>You</b> will be represented by a  <b>circle</b>  <img src= https://realitybending.github.io/IllusionGameSelfAssociation/experiment/SelfAssociation/stimuli/circle.png height=40></img></div><br><div id ='align-middle'><b>Bono</b> will be represented by a  <b>square</b>  <img src= https://realitybending.github.io/IllusionGameSelfAssociation/experiment/SelfAssociation/stimuli/square.png height=40></img></div><br><div id = 'align-middle'><b>bridget</b> will be represented by a  <b>triangle</b>  <img src= https://realitybending.github.io/IllusionGameSelfAssociation/experiment/SelfAssociation/stimuli/triangle.png height=40></img></div><br>","0","","","","","","","","","","","","","","","","","","","","","","","","",""
"","sat_fixationcross","","html-keyboard-response","21","1214884","0.0-17.0-0.0","Bono","bridget","","","","","","","","","","","","","","","","","","","","","null","<div  style='font-size:500%; position:fixed; text-align: center; top:50%; bottom:50%; right:20%; left:20%'>+</div>","null","","","","","","500","","","","","","","","","","","","","","","","","","",""
"","sat_practicetrial","","html-keyboard-response","22","1221280","0.0-17.0-1.0","Bono","bridget","","","","","","","","","","","","","","","","","","","","","null","<div style='bottom:60%; right:20%; left:20%; position:fixed'><img src=https://realitybending.github.io/IllusionGameSelfAssociation/experiment/SelfAssociation/stimuli/square.png height=20%></img></div><div  style='font-size:500%; position:fixed; text-align: center; top:50%; bottom:50%; right:20%; left:20%'>+</div><div style = ""font-size:300%; text-align: center; position:fixed; top:70%; left:20%""><b>You</b></br></br></br></br>v</div><div style = ""font-size:300%; text-align: center; position:fixed; top:70%; right:20%; left:20%""><b>Bono</b></br></br></br></br>b</div><div style = ""font-size:300%; text-align: center; position:fixed; top:70%; right:20%""><b>bridget</b></br></br></br></br>n</div>","null","","","","","","","square","1","null","Bono","false","Stranger","","","","","","","","","","","","",""
"","sat_feedback","","html-keyboard-response","23","1221796","0.0-17.0-2.0","Bono","bridget","","","","","","","","","","","","","","","","","","","","","null","<p style = 'font-size: 300%; color:blue'>Out of Time!</p>","null","","","","","","","","","","","","","","","","","","","","","","","","",""
"","sat_fixationcross","","html-keyboard-response","24","1222322","0.0-17.0-0.1","Bono","bridget","","","","","","","","","","","","","","","","","","","","","null","<div  style='font-size:500%; position:fixed; text-align: center; top:50%; bottom:50%; right:20%; left:20%'>+</div>","null","","","","","","500","","","","","","","","","","","","","","","","","","",""
"","sat_practicetrial","","html-keyboard-response","25","1223961","0.0-17.0-1.1","Bono","bridget","","","","","","","","","","","","","","","","","","","","","1638","<div style='bottom:60%; right:20%; left:20%; position:fixed'><img src=https://realitybending.github.io/IllusionGameSelfAssociation/experiment/SelfAssociation/stimuli/circle.png height=20%></img></div><div  style='font-size:500%; position:fixed; text-align: center; top:50%; bottom:50%; right:20%; left:20%'>+</div><div style = ""font-size:300%; text-align: center; position:fixed; top:70%; left:20%""><b>You</b></br></br></br></br>v</div><div style = ""font-size:300%; text-align: center; position:fixed; top:70%; right:20%; left:20%""><b>Bono</b></br></br></br></br>b</div><div style = ""font-size:300%; text-align: center; position:fixed; top:70%; right:20%""><b>bridget</b></br></br></br></br>n</div>","n","","","","","","","circle","2","bridget","You","false","Self","","","","","","","","","","","","",""
"","sat_feedback","","html-keyboard-response","26","1224467","0.0-17.0-2.1","Bono","bridget","","","","","","","","","","","","","","","","","","","","","null","<p style = 'font-size: 300%; color:red'>Incorrect!</p>","null","","","","","","","","","","","","","","","","","","","","","","","","",""
"","sat_fixationcross","","html-keyboard-response","27","1224979","0.0-17.0-0.2","Bono","bridget","","","","","","","","","","","","","","","","","","","","","null","<div  style='font-size:500%; position:fixed; text-align: center; top:50%; bottom:50%; right:20%; left:20%'>+</div>","null","","","","","","500","","","","","","","","","","","","","","","","","","",""
"","sat_practicetrial","","html-keyboard-response","28","1227115","0.0-17.0-1.2","Bono","bridget","","","","","","","","","","","","","","","","","","","","","2135","<div style='bottom:60%; right:20%; left:20%; position:fixed'><img src=https://realitybending.github.io/IllusionGameSelfAssociation/experiment/SelfAssociation/stimuli/triangle.png height=20%></img></div><div  style='font-size:500%; position:fixed; text-align: center; top:50%; bottom:50%; right:20%; left:20%'>+</div><div style = ""font-size:300%; text-align: center; position:fixed; top:70%; left:20%""><b>You</b></br></br></br></br>v</div><div style = ""font-size:300%; text-align: center; position:fixed; top:70%; right:20%; left:20%""><b>Bono</b></br></br></br></br>b</div><div style = ""font-size:300%; text-align: center; position:fixed; top:70%; right:20%""><b>bridget</b></br></br></br></br>n</div>","n","","","","","","","triangle","3","bridget","bridget","true","Friend","","","","","","","","","","","","",""
"","sat_feedback","","html-keyboard-response","29","1227626","0.0-17.0-2.2","Bono","bridget","","","","","","","","","","","","","","","","","","","","","null","<p style = 'font-size: 300%; color:green'>Correct!</p>","null","","","","","","","","","","","","","","","","","","","","","","","","",""
"","sat_fixationcross","","html-keyboard-response","30","1228138","0.0-17.0-0.3","Bono","bridget","","","","","","","","","","","","","","","","","","","","","null","<div  style='font-size:500%; position:fixed; text-align: center; top:50%; bottom:50%; right:20%; left:20%'>+</div>","null","","","","","","500","","","","","","","","","","","","","","","","","","",""
"","sat_practicetrial","","html-keyboard-response","31","1229529","0.0-17.0-1.3","Bono","bridget","","","","","","","","","","","","","","","","","","","","","1391","<div style='bottom:60%; right:20%; left:20%; position:fixed'><img src=https://realitybending.github.io/IllusionGameSelfAssociation/experiment/SelfAssociation/stimuli/square.png height=20%></img></div><div  style='font-size:500%; position:fixed; text-align: center; top:50%; bottom:50%; right:20%; left:20%'>+</div><div style = ""font-size:300%; text-align: center; position:fixed; top:70%; left:20%""><b>You</b></br></br></br></br>v</div><div style = ""font-size:300%; text-align: center; position:fixed; top:70%; right:20%; left:20%""><b>Bono</b></br></br></br></br>b</div><div style = ""font-size:300%; text-align: center; position:fixed; top:70%; right:20%""><b>bridget</b></br></br></br></br>n</div>","b","","","","","","","square","4","Bono","Bono","true","Stranger","","","","","","","","","","","","",""
"","sat_feedback","","html-keyboard-response","32","1230037","0.0-17.0-2.3","Bono","bridget","","","","","","","","","","","","","","","","","","","","","null","<p style = 'font-size: 300%; color:green'>Correct!</p>","null","","","","","","","","","","","","","","","","","","","","","","","","",""
"","sat_fixationcross","","html-keyboard-response","33","1230548","0.0-17.0-0.4","Bono","bridget","","","","","","","","","","","","","","","","","","","","","null","<div  style='font-size:500%; position:fixed; text-align: center; top:50%; bottom:50%; right:20%; left:20%'>+</div>","null","","","","","","500","","","","","","","","","","","","","","","","","","",""
"","sat_practicetrial","","html-keyboard-response","34","1231818","0.0-17.0-1.4","Bono","bridget","","","","","","","","","","","","","","","","","","","","","1267","<div style='bottom:60%; right:20%; left:20%; position:fixed'><img src=https://realitybending.github.io/IllusionGameSelfAssociation/experiment/SelfAssociation/stimuli/circle.png height=20%></img></div><div  style='font-size:500%; position:fixed; text-align: center; top:50%; bottom:50%; right:20%; left:20%'>+</div><div style = ""font-size:300%; text-align: center; position:fixed; top:70%; left:20%""><b>You</b></br></br></br></br>v</div><div style = ""font-size:300%; text-align: center; position:fixed; top:70%; right:20%; left:20%""><b>Bono</b></br></br></br></br>b</div><div style = ""font-size:300%; text-align: center; position:fixed; top:70%; right:20%""><b>bridget</b></br></br></br></br>n</div>","v","","","","","","","circle","5","You","You","true","Self","","","","","","","","","","","","",""
"","sat_feedback","","html-keyboard-response","35","1232323","0.0-17.0-2.4","Bono","bridget","","","","","","","","","","","","","","","","","","","","","null","<p style = 'font-size: 300%; color:green'>Correct!</p>","null","","","","","","","","","","","","","","","","","","","","","","","","",""
"","sat_fixationcross","","html-keyboard-response","36","1232832","0.0-17.0-0.5","Bono","bridget","","","","","","","","","","","","","","","","","","","","","null","<div  style='font-size:500%; position:fixed; text-align: center; top:50%; bottom:50%; right:20%; left:20%'>+</div>","null","","","","","","500","","","","","","","","","","","","","","","","","","",""
"","sat_practicetrial","","html-keyboard-response","37","1234483","0.0-17.0-1.5","Bono","bridget","","","","","","","","","","","","","","","","","","","","","1650","<div style='bottom:60%; right:20%; left:20%; position:fixed'><img src=https://realitybending.github.io/IllusionGameSelfAssociation/experiment/SelfAssociation/stimuli/square.png height=20%></img></div><div  style='font-size:500%; position:fixed; text-align: center; top:50%; bottom:50%; right:20%; left:20%'>+</div><div style = ""font-size:300%; text-align: center; position:fixed; top:70%; left:20%""><b>You</b></br></br></br></br>v</div><div style = ""font-size:300%; text-align: center; position:fixed; top:70%; right:20%; left:20%""><b>Bono</b></br></br></br></br>b</div><div style = ""font-size:300%; text-align: center; position:fixed; top:70%; right:20%""><b>bridget</b></br></br></br></br>n</div>","b","","","","","","","square","6","Bono","Bono","true","Stranger","","","","","","","","","","","","",""
"","sat_feedback","","html-keyboard-response","38","1234987","0.0-17.0-2.5","Bono","bridget","","","","","","","","","","","","","","","","","","","","","null","<p style = 'font-size: 300%; color:green'>Correct!</p>","null","","","","","","","","","","","","","","","","","","","","","","","","",""
"","sat_fixationcross","","html-keyboard-response","39","1235501","0.0-17.0-0.6","Bono","bridget","","","","","","","","","","","","","","","","","","","","","null","<div  style='font-size:500%; position:fixed; text-align: center; top:50%; bottom:50%; right:20%; left:20%'>+</div>","null","","","","","","500","","","","","","","","","","","","","","","","","","",""
"","sat_practicetrial","","html-keyboard-response","40","1236356","0.0-17.0-1.6","Bono","bridget","","","","","","","","","","","","","","","","","","","","","855","<div style='bottom:60%; right:20%; left:20%; position:fixed'><img src=https://realitybending.github.io/IllusionGameSelfAssociation/experiment/SelfAssociation/stimuli/square.png height=20%></img></div><div  style='font-size:500%; position:fixed; text-align: center; top:50%; bottom:50%; right:20%; left:20%'>+</div><div style = ""font-size:300%; text-align: center; position:fixed; top:70%; left:20%""><b>You</b></br></br></br></br>v</div><div style = ""font-size:300%; text-align: center; position:fixed; top:70%; right:20%; left:20%""><b>Bono</b></br></br></br></br>b</div><div style = ""font-size:300%; text-align: center; position:fixed; top:70%; right:20%""><b>bridget</b></br></br></br></br>n</div>","b","","","","","","","square","7","Bono","Bono","true","Stranger","","","","","","","","","","","","",""
"","sat_feedback","","html-keyboard-response","41","1236861","0.0-17.0-2.6","Bono","bridget","","","","","","","","","","","","","","","","","","","","","null","<p style = 'font-size: 300%; color:green'>Correct!</p>","null","","","","","","","","","","","","","","","","","","","","","","","","",""
"","sat_fixationcross","","html-keyboard-response","42","1237374","0.0-17.0-0.7","Bono","bridget","","","","","","","","","","","","","","","","","","","","","null","<div  style='font-size:500%; position:fixed; text-align: center; top:50%; bottom:50%; right:20%; left:20%'>+</div>","null","","","","","","500","","","","","","","","","","","","","","","","","","",""
"","sat_practicetrial","","html-keyboard-response","43","1238492","0.0-17.0-1.7","Bono","bridget","","","","","","","","","","","","","","","","","","","","","1117","<div style='bottom:60%; right:20%; left:20%; position:fixed'><img src=https://realitybending.github.io/IllusionGameSelfAssociation/experiment/SelfAssociation/stimuli/triangle.png height=20%></img></div><div  style='font-size:500%; position:fixed; text-align: center; top:50%; bottom:50%; right:20%; left:20%'>+</div><div style = ""font-size:300%; text-align: center; position:fixed; top:70%; left:20%""><b>You</b></br></br></br></br>v</div><div style = ""font-size:300%; text-align: center; position:fixed; top:70%; right:20%; left:20%""><b>Bono</b></br></br></br></br>b</div><div style = ""font-size:300%; text-align: center; position:fixed; top:70%; right:20%""><b>bridget</b></br></br></br></br>n</div>","n","","","","","","","triangle","8","bridget","bridget","true","Friend","","","","","","","","","","","","",""
"","sat_feedback","","html-keyboard-response","44","1238996","0.0-17.0-2.7","Bono","bridget","","","","","","","","","","","","","","","","","","","","","null","<p style = 'font-size: 300%; color:green'>Correct!</p>","null","","","","","","","","","","","","","","","","","","","","","","","","",""
"","sat_fixationcross","","html-keyboard-response","45","1239506","0.0-17.0-0.8","Bono","bridget","","","","","","","","","","","","","","","","","","","","","null","<div  style='font-size:500%; position:fixed; text-align: center; top:50%; bottom:50%; right:20%; left:20%'>+</div>","null","","","","","","500","","","","","","","","","","","","","","","","","","",""
"","sat_practicetrial","","html-keyboard-response","46","1240435","0.0-17.0-1.8","Bono","bridget","","","","","","","","","","","","","","","","","","","","","929","<div style='bottom:60%; right:20%; left:20%; position:fixed'><img src=https://realitybending.github.io/IllusionGameSelfAssociation/experiment/SelfAssociation/stimuli/circle.png height=20%></img></div><div  style='font-size:500%; position:fixed; text-align: center; top:50%; bottom:50%; right:20%; left:20%'>+</div><div style = ""font-size:300%; text-align: center; position:fixed; top:70%; left:20%""><b>You</b></br></br></br></br>v</div><div style = ""font-size:300%; text-align: center; position:fixed; top:70%; right:20%; left:20%""><b>Bono</b></br></br></br></br>b</div><div style = ""font-size:300%; text-align: center; position:fixed; top:70%; right:20%""><b>bridget</b></br></br></br></br>n</div>","v","","","","","","","circle","9","You","You","true","Self","","","","","","","","","","","","",""
"","sat_feedback","","html-keyboard-response","47","1240944","0.0-17.0-2.8","Bono","bridget","","","","","","","","","","","","","","","","","","","","","null","<p style = 'font-size: 300%; color:green'>Correct!</p>","null","","","","","","","","","","","","","","","","","","","","","","","","",""
"","sat_fixationcross","","html-keyboard-response","48","1241456","0.0-17.0-0.9","Bono","bridget","","","","","","","","","","","","","","","","","","","","","null","<div  style='font-size:500%; position:fixed; text-align: center; top:50%; bottom:50%; right:20%; left:20%'>+</div>","null","","","","","","500","","","","","","","","","","","","","","","","","","",""
"","sat_practicetrial","","html-keyboard-response","49","1242912","0.0-17.0-1.9","Bono","bridget","","","","","","","","","","","","","","","","","","","","","1454","<div style='bottom:60%; right:20%; left:20%; position:fixed'><img src=https://realitybending.github.io/IllusionGameSelfAssociation/experiment/SelfAssociation/stimuli/triangle.png height=20%></img></div><div  style='font-size:500%; position:fixed; text-align: center; top:50%; bottom:50%; right:20%; left:20%'>+</div><div style = ""font-size:300%; text-align: center; position:fixed; top:70%; left:20%""><b>You</b></br></br></br></br>v</div><div style = ""font-size:300%; text-align: center; position:fixed; top:70%; right:20%; left:20%""><b>Bono</b></br></br></br></br>b</div><div style = ""font-size:300%; text-align: center; position:fixed; top:70%; right:20%""><b>bridget</b></br></br></br></br>n</div>","n","","","","","","","triangle","10","bridget","bridget","true","Friend","","","","","","","","","","","","",""
"","sat_feedback","","html-keyboard-response","50","1243420","0.0-17.0-2.9","Bono","bridget","","","","","","","","","","","","","","","","","","","","","null","<p style = 'font-size: 300%; color:green'>Correct!</p>","null","","","","","","","","","","","","","","","","","","","","","","","","",""
"","sat_fixationcross","","html-keyboard-response","51","1243930","0.0-17.0-0.10","Bono","bridget","","","","","","","","","","","","","","","","","","","","","null","<div  style='font-size:500%; position:fixed; text-align: center; top:50%; bottom:50%; right:20%; left:20%'>+</div>","null","","","","","","500","","","","","","","","","","","","","","","","","","",""
"","sat_practicetrial","","html-keyboard-response","52","1244848","0.0-17.0-1.10","Bono","bridget","","","","","","","","","","","","","","","","","","","","","917","<div style='bottom:60%; right:20%; left:20%; position:fixed'><img src=https://realitybending.github.io/IllusionGameSelfAssociation/experiment/SelfAssociation/stimuli/circle.png height=20%></img></div><div  style='font-size:500%; position:fixed; text-align: center; top:50%; bottom:50%; right:20%; left:20%'>+</div><div style = ""font-size:300%; text-align: center; position:fixed; top:70%; left:20%""><b>You</b></br></br></br></br>v</div><div style = ""font-size:300%; text-align: center; position:fixed; top:70%; right:20%; left:20%""><b>Bono</b></br></br></br></br>b</div><div style = ""font-size:300%; text-align: center; position:fixed; top:70%; right:20%""><b>bridget</b></br></br></br></br>n</div>","v","","","","","","","circle","11","You","You","true","Self","","","","","","","","","","","","",""
"","sat_feedback","","html-keyboard-response","53","1245364","0.0-17.0-2.10","Bono","bridget","","","","","","","","","","","","","","","","","","","","","null","<p style = 'font-size: 300%; color:green'>Correct!</p>","null","","","","","","","","","","","","","","","","","","","","","","","","",""
"","sat_fixationcross","","html-keyboard-response","54","1245874","0.0-17.0-0.11","Bono","bridget","","","","","","","","","","","","","","","","","","","","","null","<div  style='font-size:500%; position:fixed; text-align: center; top:50%; bottom:50%; right:20%; left:20%'>+</div>","null","","","","","","500","","","","","","","","","","","","","","","","","","",""
"","sat_practicetrial","","html-keyboard-response","55","1247088","0.0-17.0-1.11","Bono","bridget","","","","","","","","","","","","","","","","","","","","","1214","<div style='bottom:60%; right:20%; left:20%; position:fixed'><img src=https://realitybending.github.io/IllusionGameSelfAssociation/experiment/SelfAssociation/stimuli/circle.png height=20%></img></div><div  style='font-size:500%; position:fixed; text-align: center; top:50%; bottom:50%; right:20%; left:20%'>+</div><div style = ""font-size:300%; text-align: center; position:fixed; top:70%; left:20%""><b>You</b></br></br></br></br>v</div><div style = ""font-size:300%; text-align: center; position:fixed; top:70%; right:20%; left:20%""><b>Bono</b></br></br></br></br>b</div><div style = ""font-size:300%; text-align: center; position:fixed; top:70%; right:20%""><b>bridget</b></br></br></br></br>n</div>","v","","","","","","","circle","12","You","You","true","Self","","","","","","","","","","","","",""
"","sat_feedback","","html-keyboard-response","56","1247594","0.0-17.0-2.11","Bono","bridget","","","","","","","","","","","","","","","","","","","","","null","<p style = 'font-size: 300%; color:green'>Correct!</p>","null","","","","","","","","","","","","","","","","","","","","","","","","",""
"","sat_fixationcross","","html-keyboard-response","57","1248109","0.0-17.0-0.12","Bono","bridget","","","","","","","","","","","","","","","","","","","","","null","<div  style='font-size:500%; position:fixed; text-align: center; top:50%; bottom:50%; right:20%; left:20%'>+</div>","null","","","","","","500","","","","","","","","","","","","","","","","","","",""
"","sat_practicetrial","","html-keyboard-response","58","1248883","0.0-17.0-1.12","Bono","bridget","","","","","","","","","","","","","","","","","","","","","774","<div style='bottom:60%; right:20%; left:20%; position:fixed'><img src=https://realitybending.github.io/IllusionGameSelfAssociation/experiment/SelfAssociation/stimuli/square.png height=20%></img></div><div  style='font-size:500%; position:fixed; text-align: center; top:50%; bottom:50%; right:20%; left:20%'>+</div><div style = ""font-size:300%; text-align: center; position:fixed; top:70%; left:20%""><b>You</b></br></br></br></br>v</div><div style = ""font-size:300%; text-align: center; position:fixed; top:70%; right:20%; left:20%""><b>Bono</b></br></br></br></br>b</div><div style = ""font-size:300%; text-align: center; position:fixed; top:70%; right:20%""><b>bridget</b></br></br></br></br>n</div>","b","","","","","","","square","13","Bono","Bono","true","Stranger","","","","","","","","","","","","",""
"","sat_feedback","","html-keyboard-response","59","1249393","0.0-17.0-2.12","Bono","bridget","","","","","","","","","","","","","","","","","","","","","null","<p style = 'font-size: 300%; color:green'>Correct!</p>","null","","","","","","","","","","","","","","","","","","","","","","","","",""
"","sat_fixationcross","","html-keyboard-response","60","1249903","0.0-17.0-0.13","Bono","bridget","","","","","","","","","","","","","","","","","","","","","null","<div  style='font-size:500%; position:fixed; text-align: center; top:50%; bottom:50%; right:20%; left:20%'>+</div>","null","","","","","","500","","","","","","","","","","","","","","","","","","",""
"","sat_practicetrial","","html-keyboard-response","61","1250580","0.0-17.0-1.13","Bono","bridget","","","","","","","","","","","","","","","","","","","","","676","<div style='bottom:60%; right:20%; left:20%; position:fixed'><img src=https://realitybending.github.io/IllusionGameSelfAssociation/experiment/SelfAssociation/stimuli/square.png height=20%></img></div><div  style='font-size:500%; position:fixed; text-align: center; top:50%; bottom:50%; right:20%; left:20%'>+</div><div style = ""font-size:300%; text-align: center; position:fixed; top:70%; left:20%""><b>You</b></br></br></br></br>v</div><div style = ""font-size:300%; text-align: center; position:fixed; top:70%; right:20%; left:20%""><b>Bono</b></br></br></br></br>b</div><div style = ""font-size:300%; text-align: center; position:fixed; top:70%; right:20%""><b>bridget</b></br></br></br></br>n</div>","b","","","","","","","square","14","Bono","Bono","true","Stranger","","","","","","","","","","","","",""
"","sat_feedback","","html-keyboard-response","62","1251087","0.0-17.0-2.13","Bono","bridget","","","","","","","","","","","","","","","","","","","","","null","<p style = 'font-size: 300%; color:green'>Correct!</p>","null","","","","","","","","","","","","","","","","","","","","","","","","",""
"","sat_fixationcross","","html-keyboard-response","63","1251592","0.0-17.0-0.14","Bono","bridget","","","","","","","","","","","","","","","","","","","","","null","<div  style='font-size:500%; position:fixed; text-align: center; top:50%; bottom:50%; right:20%; left:20%'>+</div>","null","","","","","","500","","","","","","","","","","","","","","","","","","",""
"","sat_practicetrial","","html-keyboard-response","64","1252728","0.0-17.0-1.14","Bono","bridget","","","","","","","","","","","","","","","","","","","","","1134","<div style='bottom:60%; right:20%; left:20%; position:fixed'><img src=https://realitybending.github.io/IllusionGameSelfAssociation/experiment/SelfAssociation/stimuli/square.png height=20%></img></div><div  style='font-size:500%; position:fixed; text-align: center; top:50%; bottom:50%; right:20%; left:20%'>+</div><div style = ""font-size:300%; text-align: center; position:fixed; top:70%; left:20%""><b>You</b></br></br></br></br>v</div><div style = ""font-size:300%; text-align: center; position:fixed; top:70%; right:20%; left:20%""><b>Bono</b></br></br></br></br>b</div><div style = ""font-size:300%; text-align: center; position:fixed; top:70%; right:20%""><b>bridget</b></br></br></br></br>n</div>","b","","","","","","","square","15","Bono","Bono","true","Stranger","","","","","","","","","","","","",""
"","sat_feedback","","html-keyboard-response","65","1253230","0.0-17.0-2.14","Bono","bridget","","","","","","","","","","","","","","","","","","","","","null","<p style = 'font-size: 300%; color:green'>Correct!</p>","null","","","","","","","","","","","","","","","","","","","","","","","","",""
"","sat_fixationcross","","html-keyboard-response","66","1253743","0.0-17.0-0.15","Bono","bridget","","","","","","","","","","","","","","","","","","","","","null","<div  style='font-size:500%; position:fixed; text-align: center; top:50%; bottom:50%; right:20%; left:20%'>+</div>","null","","","","","","500","","","","","","","","","","","","","","","","","","",""
"","sat_practicetrial","","html-keyboard-response","67","1254304","0.0-17.0-1.15","Bono","bridget","","","","","","","","","","","","","","","","","","","","","560","<div style='bottom:60%; right:20%; left:20%; position:fixed'><img src=https://realitybending.github.io/IllusionGameSelfAssociation/experiment/SelfAssociation/stimuli/square.png height=20%></img></div><div  style='font-size:500%; position:fixed; text-align: center; top:50%; bottom:50%; right:20%; left:20%'>+</div><div style = ""font-size:300%; text-align: center; position:fixed; top:70%; left:20%""><b>You</b></br></br></br></br>v</div><div style = ""font-size:300%; text-align: center; position:fixed; top:70%; right:20%; left:20%""><b>Bono</b></br></br></br></br>b</div><div style = ""font-size:300%; text-align: center; position:fixed; top:70%; right:20%""><b>bridget</b></br></br></br></br>n</div>","b","","","","","","","square","16","Bono","Bono","true","Stranger","","","","","","","","","","","","",""
"","sat_feedback","","html-keyboard-response","68","1254810","0.0-17.0-2.15","Bono","bridget","","","","","","","","","","","","","","","","","","","","","null","<p style = 'font-size: 300%; color:green'>Correct!</p>","null","","","","","","","","","","","","","","","","","","","","","","","","",""
"","sat_fixationcross","","html-keyboard-response","69","1255320","0.0-17.0-0.16","Bono","bridget","","","","","","","","","","","","","","","","","","","","","null","<div  style='font-size:500%; position:fixed; text-align: center; top:50%; bottom:50%; right:20%; left:20%'>+</div>","null","","","","","","500","","","","","","","","","","","","","","","","","","",""
"","sat_practicetrial","","html-keyboard-response","70","1255826","0.0-17.0-1.16","Bono","bridget","","","","","","","","","","","","","","","","","","","","","505","<div style='bottom:60%; right:20%; left:20%; position:fixed'><img src=https://realitybending.github.io/IllusionGameSelfAssociation/experiment/SelfAssociation/stimuli/square.png height=20%></img></div><div  style='font-size:500%; position:fixed; text-align: center; top:50%; bottom:50%; right:20%; left:20%'>+</div><div style = ""font-size:300%; text-align: center; position:fixed; top:70%; left:20%""><b>You</b></br></br></br></br>v</div><div style = ""font-size:300%; text-align: center; position:fixed; top:70%; right:20%; left:20%""><b>Bono</b></br></br></br></br>b</div><div style = ""font-size:300%; text-align: center; position:fixed; top:70%; right:20%""><b>bridget</b></br></br></br></br>n</div>","b","","","","","","","square","17","Bono","Bono","true","Stranger","","","","","","","","","","","","",""
"","sat_feedback","","html-keyboard-response","71","1256343","0.0-17.0-2.16","Bono","bridget","","","","","","","","","","","","","","","","","","","","","null","<p style = 'font-size: 300%; color:green'>Correct!</p>","null","","","","","","","","","","","","","","","","","","","","","","","","",""
"","sat_fixationcross","","html-keyboard-response","72","1256850","0.0-17.0-0.17","Bono","bridget","","","","","","","","","","","","","","","","","","","","","null","<div  style='font-size:500%; position:fixed; text-align: center; top:50%; bottom:50%; right:20%; left:20%'>+</div>","null","","","","","","500","","","","","","","","","","","","","","","","","","",""
"","sat_practicetrial","","html-keyboard-response","73","1257723","0.0-17.0-1.17","Bono","bridget","","","","","","","","","","","","","","","","","","","","","870","<div style='bottom:60%; right:20%; left:20%; position:fixed'><img src=https://realitybending.github.io/IllusionGameSelfAssociation/experiment/SelfAssociation/stimuli/circle.png height=20%></img></div><div  style='font-size:500%; position:fixed; text-align: center; top:50%; bottom:50%; right:20%; left:20%'>+</div><div style = ""font-size:300%; text-align: center; position:fixed; top:70%; left:20%""><b>You</b></br></br></br></br>v</div><div style = ""font-size:300%; text-align: center; position:fixed; top:70%; right:20%; left:20%""><b>Bono</b></br></br></br></br>b</div><div style = ""font-size:300%; text-align: center; position:fixed; top:70%; right:20%""><b>bridget</b></br></br></br></br>n</div>","v","","","","","","","circle","18","You","You","true","Self","","","","","","","","","","","","",""
"","sat_feedback","","html-keyboard-response","74","1258228","0.0-17.0-2.17","Bono","bridget","","","","","","","","","","","","","","","","","","","","","null","<p style = 'font-size: 300%; color:green'>Correct!</p>","null","","","","","","","","","","","","","","","","","","","","","","","","",""
"","sat_fixationcross","","html-keyboard-response","75","1258739","0.0-17.0-0.18","Bono","bridget","","","","","","","","","","","","","","","","","","","","","null","<div  style='font-size:500%; position:fixed; text-align: center; top:50%; bottom:50%; right:20%; left:20%'>+</div>","null","","","","","","500","","","","","","","","","","","","","","","","","","",""
"","sat_practicetrial","","html-keyboard-response","76","1259363","0.0-17.0-1.18","Bono","bridget","","","","","","","","","","","","","","","","","","","","","623","<div style='bottom:60%; right:20%; left:20%; position:fixed'><img src=https://realitybending.github.io/IllusionGameSelfAssociation/experiment/SelfAssociation/stimuli/triangle.png height=20%></img></div><div  style='font-size:500%; position:fixed; text-align: center; top:50%; bottom:50%; right:20%; left:20%'>+</div><div style = ""font-size:300%; text-align: center; position:fixed; top:70%; left:20%""><b>You</b></br></br></br></br>v</div><div style = ""font-size:300%; text-align: center; position:fixed; top:70%; right:20%; left:20%""><b>Bono</b></br></br></br></br>b</div><div style = ""font-size:300%; text-align: center; position:fixed; top:70%; right:20%""><b>bridget</b></br></br></br></br>n</div>","n","","","","","","","triangle","19","bridget","bridget","true","Friend","","","","","","","","","","","","",""
"","sat_feedback","","html-keyboard-response","77","1259865","0.0-17.0-2.18","Bono","bridget","","","","","","","","","","","","","","","","","","","","","null","<p style = 'font-size: 300%; color:green'>Correct!</p>","null","","","","","","","","","","","","","","","","","","","","","","","","",""
"","sat_fixationcross","","html-keyboard-response","78","1260374","0.0-17.0-0.19","Bono","bridget","","","","","","","","","","","","","","","","","","","","","null","<div  style='font-size:500%; position:fixed; text-align: center; top:50%; bottom:50%; right:20%; left:20%'>+</div>","null","","","","","","500","","","","","","","","","","","","","","","","","","",""
"","sat_practicetrial","","html-keyboard-response","79","1261378","0.0-17.0-1.19","Bono","bridget","","","","","","","","","","","","","","","","","","","","","1004","<div style='bottom:60%; right:20%; left:20%; position:fixed'><img src=https://realitybending.github.io/IllusionGameSelfAssociation/experiment/SelfAssociation/stimuli/square.png height=20%></img></div><div  style='font-size:500%; position:fixed; text-align: center; top:50%; bottom:50%; right:20%; left:20%'>+</div><div style = ""font-size:300%; text-align: center; position:fixed; top:70%; left:20%""><b>You</b></br></br></br></br>v</div><div style = ""font-size:300%; text-align: center; position:fixed; top:70%; right:20%; left:20%""><b>Bono</b></br></br></br></br>b</div><div style = ""font-size:300%; text-align: center; position:fixed; top:70%; right:20%""><b>bridget</b></br></br></br></br>n</div>","b","","","","","","","square","20","Bono","Bono","true","Stranger","","","","","","","","","","","","",""
"","sat_feedback","","html-keyboard-response","80","1261886","0.0-17.0-2.19","Bono","bridget","","","","","","","","","","","","","","","","","","","","","null","<p style = 'font-size: 300%; color:green'>Correct!</p>","null","","","","","","","","","","","","","","","","","","","","","","","","",""
"","sat_fixationcross","","html-keyboard-response","81","1262397","0.0-17.0-0.20","Bono","bridget","","","","","","","","","","","","","","","","","","","","","null","<div  style='font-size:500%; position:fixed; text-align: center; top:50%; bottom:50%; right:20%; left:20%'>+</div>","null","","","","","","500","","","","","","","","","","","","","","","","","","",""
"","sat_practicetrial","","html-keyboard-response","82","1262913","0.0-17.0-1.20","Bono","bridget","","","","","","","","","","","","","","","","","","","","","516","<div style='bottom:60%; right:20%; left:20%; position:fixed'><img src=https://realitybending.github.io/IllusionGameSelfAssociation/experiment/SelfAssociation/stimuli/triangle.png height=20%></img></div><div  style='font-size:500%; position:fixed; text-align: center; top:50%; bottom:50%; right:20%; left:20%'>+</div><div style = ""font-size:300%; text-align: center; position:fixed; top:70%; left:20%""><b>You</b></br></br></br></br>v</div><div style = ""font-size:300%; text-align: center; position:fixed; top:70%; right:20%; left:20%""><b>Bono</b></br></br></br></br>b</div><div style = ""font-size:300%; text-align: center; position:fixed; top:70%; right:20%""><b>bridget</b></br></br></br></br>n</div>","n","","","","","","","triangle","21","bridget","bridget","true","Friend","","","","","","","","","","","","",""
"","sat_practice_end","","html-button-response","83","1266431","0.0-18.0","Bono","bridget","","","","","","","","","","","","","","","","","","","","","3517","<h1>Congratulations!</h1><p>You have completed the training.</p>","0","","","","","","","","","","","","","","","","","","","","","","","","",""
"","matching_instructions","","html-button-response","84","1297529","0.0-19.0","Bono","bridget","","","","","","","","","","","","","","","","","","","","","31097","<h1>Instructions</h1><p>In this part of the game, the previous shapes will be re-assigned to the labels.</p><p>Your task will be then to decide if the presented shape matches their newly assigned label as quickly and accurately as possible.</p><p>If the shape-label pair is a <b>match</b>, press <b>'e'</b>.</p><p>If the shape-label pair is <b>not a match</b>, press <b>'i'</b></p><br><p>Good luck!</p>","0","","","","","","","","","","","","","","","","","","","","","","","","",""
"","SAT_assignmentscreen","","html-button-response","85","1338086","0.0-20.0","Bono","bridget","","","","","","","","","","","","","","","","","","","","","40556","<h1>Instructions</h1><div id ='align-middle'><b>You</b> will be represented by a  <b>square</b>  <img src= https://realitybending.github.io/IllusionGameSelfAssociation/experiment/SelfAssociation/stimuli/square.png height=40></img></div><br><div id ='align-middle'><b>Bono</b> will be represented by a  <b>triangle</b>  <img src= https://realitybending.github.io/IllusionGameSelfAssociation/experiment/SelfAssociation/stimuli/triangle.png height=40></img></div><br><div id = 'align-middle'><b>bridget</b> will be represented by a  <b>circle</b>  <img src= https://realitybending.github.io/IllusionGameSelfAssociation/experiment/SelfAssociation/stimuli/circle.png height=40></img></div><br>","0","","","","","","","","","","","","","","","","","","","","","","","","",""
"","sat_fixationcross","","html-keyboard-response","86","1338598","0.0-21.0-0.0","Bono","bridget","","","","","","","","","","","","","","","","","","","","","null","<div  style='font-size:500%; position:fixed; text-align: center; top:50%; bottom:50%; right:20%; left:20%'>+</div>","null","","","","","","500","","","","","","","","","","","","","","","","","","",""
"","sat_trial","","html-keyboard-response","87","1339880","0.0-21.0-1.0","Bono","bridget","","","","","","","","","","","","","","","","","","","","","1280","<div style='bottom:60%; right:20%; left:20%; position:fixed'><img src=https://realitybending.github.io/IllusionGameSelfAssociation/experiment/SelfAssociation/stimuli/circle.png height=20%></img></div><div  style='font-size:500%; position:fixed; text-align: center; top:50%; bottom:50%; right:20%; left:20%'>+</div><div style = ""font-size:300%; text-align: center; position:fixed; top:70%; right:20%; left:20%""><b>You</div>","e","","","","","","","circle","1","match","mismatch","false","","Self","1","","","","","","","","","","",""
"","sat_feedback","","html-keyboard-response","88","1340386","0.0-21.0-2.0","Bono","bridget","","","","","","","","","","","","","","","","","","","","","null","<p style = 'font-size: 300%; color:red'>Incorrect!</p>","null","","","","","","","","","","","","","","","","","","","","","","","","",""
"","sat_fixationcross","","html-keyboard-response","89","1340894","0.0-21.0-0.1","Bono","bridget","","","","","","","","","","","","","","","","","","","","","null","<div  style='font-size:500%; position:fixed; text-align: center; top:50%; bottom:50%; right:20%; left:20%'>+</div>","null","","","","","","500","","","","","","","","","","","","","","","","","","",""
"","sat_trial","","html-keyboard-response","90","1342225","0.0-21.0-1.1","Bono","bridget","","","","","","","","","","","","","","","","","","","","","1328","<div style='bottom:60%; right:20%; left:20%; position:fixed'><img src=https://realitybending.github.io/IllusionGameSelfAssociation/experiment/SelfAssociation/stimuli/triangle.png height=20%></img></div><div  style='font-size:500%; position:fixed; text-align: center; top:50%; bottom:50%; right:20%; left:20%'>+</div><div style = ""font-size:300%; text-align: center; position:fixed; top:70%; right:20%; left:20%""><b>bridget</div>","i","","","","","","","triangle","2","mismatch","mismatch","true","","Friend","1","","","","","","","","","","",""
"","sat_feedback","","html-keyboard-response","91","1342739","0.0-21.0-2.1","Bono","bridget","","","","","","","","","","","","","","","","","","","","","null","<p style = 'font-size: 300%; color:green'>Correct!</p>","null","","","","","","","","","","","","","","","","","","","","","","","","",""
"","sat_fixationcross","","html-keyboard-response","92","1343248","0.0-21.0-0.2","Bono","bridget","","","","","","","","","","","","","","","","","","","","","null","<div  style='font-size:500%; position:fixed; text-align: center; top:50%; bottom:50%; right:20%; left:20%'>+</div>","null","","","","","","500","","","","","","","","","","","","","","","","","","",""
"","sat_trial","","html-keyboard-response","93","1344257","0.0-21.0-1.2","Bono","bridget","","","","","","","","","","","","","","","","","","","","","1009","<div style='bottom:60%; right:20%; left:20%; position:fixed'><img src=https://realitybending.github.io/IllusionGameSelfAssociation/experiment/SelfAssociation/stimuli/circle.png height=20%></img></div><div  style='font-size:500%; position:fixed; text-align: center; top:50%; bottom:50%; right:20%; left:20%'>+</div><div style = ""font-size:300%; text-align: center; position:fixed; top:70%; right:20%; left:20%""><b>You</div>","e","","","","","","","circle","3","match","mismatch","false","","Self","1","","","","","","","","","","",""
"","sat_feedback","","html-keyboard-response","94","1344771","0.0-21.0-2.2","Bono","bridget","","","","","","","","","","","","","","","","","","","","","null","<p style = 'font-size: 300%; color:red'>Incorrect!</p>","null","","","","","","","","","","","","","","","","","","","","","","","","",""
"","sat_fixationcross","","html-keyboard-response","95","1345277","0.0-21.0-0.3","Bono","bridget","","","","","","","","","","","","","","","","","","","","","null","<div  style='font-size:500%; position:fixed; text-align: center; top:50%; bottom:50%; right:20%; left:20%'>+</div>","null","","","","","","500","","","","","","","","","","","","","","","","","","",""
"","sat_trial","","html-keyboard-response","96","1345824","0.0-21.0-1.3","Bono","bridget","","","","","","","","","","","","","","","","","","","","","547","<div style='bottom:60%; right:20%; left:20%; position:fixed'><img src=https://realitybending.github.io/IllusionGameSelfAssociation/experiment/SelfAssociation/stimuli/square.png height=20%></img></div><div  style='font-size:500%; position:fixed; text-align: center; top:50%; bottom:50%; right:20%; left:20%'>+</div><div style = ""font-size:300%; text-align: center; position:fixed; top:70%; right:20%; left:20%""><b>Bono</div>","i","","","","","","","square","4","mismatch","mismatch","true","","Stranger","1","","","","","","","","","","",""
"","sat_feedback","","html-keyboard-response","97","1346339","0.0-21.0-2.3","Bono","bridget","","","","","","","","","","","","","","","","","","","","","null","<p style = 'font-size: 300%; color:green'>Correct!</p>","null","","","","","","","","","","","","","","","","","","","","","","","","",""
"","sat_fixationcross","","html-keyboard-response","98","1346848","0.0-21.0-0.4","Bono","bridget","","","","","","","","","","","","","","","","","","","","","null","<div  style='font-size:500%; position:fixed; text-align: center; top:50%; bottom:50%; right:20%; left:20%'>+</div>","null","","","","","","500","","","","","","","","","","","","","","","","","","",""
"","sat_trial","","html-keyboard-response","99","1347816","0.0-21.0-1.4","Bono","bridget","","","","","","","","","","","","","","","","","","","","","969","<div style='bottom:60%; right:20%; left:20%; position:fixed'><img src=https://realitybending.github.io/IllusionGameSelfAssociation/experiment/SelfAssociation/stimuli/triangle.png height=20%></img></div><div  style='font-size:500%; position:fixed; text-align: center; top:50%; bottom:50%; right:20%; left:20%'>+</div><div style = ""font-size:300%; text-align: center; position:fixed; top:70%; right:20%; left:20%""><b>You</div>","i","","","","","","","triangle","5","mismatch","mismatch","true","","Self","1","","","","","","","","","","",""
"","sat_feedback","","html-keyboard-response","100","1348354","0.0-21.0-2.4","Bono","bridget","","","","","","","","","","","","","","","","","","","","","null","<p style = 'font-size: 300%; color:green'>Correct!</p>","null","","","","","","","","","","","","","","","","","","","","","","","","",""
"","sat_fixationcross","","html-keyboard-response","101","1348861","0.0-21.0-0.5","Bono","bridget","","","","","","","","","","","","","","","","","","","","","null","<div  style='font-size:500%; position:fixed; text-align: center; top:50%; bottom:50%; right:20%; left:20%'>+</div>","null","","","","","","500","","","","","","","","","","","","","","","","","","",""
"","sat_trial","","html-keyboard-response","102","1350128","0.0-21.0-1.5","Bono","bridget","","","","","","","","","","","","","","","","","","","","","1267","<div style='bottom:60%; right:20%; left:20%; position:fixed'><img src=https://realitybending.github.io/IllusionGameSelfAssociation/experiment/SelfAssociation/stimuli/circle.png height=20%></img></div><div  style='font-size:500%; position:fixed; text-align: center; top:50%; bottom:50%; right:20%; left:20%'>+</div><div style = ""font-size:300%; text-align: center; position:fixed; top:70%; right:20%; left:20%""><b>You</div>","e","","","","","","","circle","6","match","mismatch","false","","Self","1","","","","","","","","","","",""
"","sat_feedback","","html-keyboard-response","103","1350640","0.0-21.0-2.5","Bono","bridget","","","","","","","","","","","","","","","","","","","","","null","<p style = 'font-size: 300%; color:red'>Incorrect!</p>","null","","","","","","","","","","","","","","","","","","","","","","","","",""
"","sat_fixationcross","","html-keyboard-response","104","1351152","0.0-21.0-0.6","Bono","bridget","","","","","","","","","","","","","","","","","","","","","null","<div  style='font-size:500%; position:fixed; text-align: center; top:50%; bottom:50%; right:20%; left:20%'>+</div>","null","","","","","","500","","","","","","","","","","","","","","","","","","",""
"","sat_trial","","html-keyboard-response","105","1352185","0.0-21.0-1.6","Bono","bridget","","","","","","","","","","","","","","","","","","","","","1032","<div style='bottom:60%; right:20%; left:20%; position:fixed'><img src=https://realitybending.github.io/IllusionGameSelfAssociation/experiment/SelfAssociation/stimuli/square.png height=20%></img></div><div  style='font-size:500%; position:fixed; text-align: center; top:50%; bottom:50%; right:20%; left:20%'>+</div><div style = ""font-size:300%; text-align: center; position:fixed; top:70%; right:20%; left:20%""><b>bridget</div>","i","","","","","","","square","7","mismatch","mismatch","true","","Friend","1","","","","","","","","","","",""
"","sat_feedback","","html-keyboard-response","106","1352700","0.0-21.0-2.6","Bono","bridget","","","","","","","","","","","","","","","","","","","","","null","<p style = 'font-size: 300%; color:green'>Correct!</p>","null","","","","","","","","","","","","","","","","","","","","","","","","",""
"","sat_fixationcross","","html-keyboard-response","107","1353210","0.0-21.0-0.7","Bono","bridget","","","","","","","","","","","","","","","","","","","","","null","<div  style='font-size:500%; position:fixed; text-align: center; top:50%; bottom:50%; right:20%; left:20%'>+</div>","null","","","","","","500","","","","","","","","","","","","","","","","","","",""
"","sat_trial","","html-keyboard-response","108","1357424","0.0-21.0-1.7","Bono","bridget","","","","","","","","","","","","","","","","","","","","","null","<div style='bottom:60%; right:20%; left:20%; position:fixed'><img src=https://realitybending.github.io/IllusionGameSelfAssociation/experiment/SelfAssociation/stimuli/triangle.png height=20%></img></div><div  style='font-size:500%; position:fixed; text-align: center; top:50%; bottom:50%; right:20%; left:20%'>+</div><div style = ""font-size:300%; text-align: center; position:fixed; top:70%; right:20%; left:20%""><b>You</div>","null","","","","","","","triangle","8","null","mismatch","false","","Self","1","","","","","","","","","","",""
"","sat_feedback","","html-keyboard-response","109","1357932","0.0-21.0-2.7","Bono","bridget","","","","","","","","","","","","","","","","","","","","","null","<p style = 'font-size: 300%; color:blue'>Out of Time!</p>","null","","","","","","","","","","","","","","","","","","","","","","","","",""
"","sat_fixationcross","","html-keyboard-response","110","1358442","0.0-21.0-0.8","Bono","bridget","","","","","","","","","","","","","","","","","","","","","null","<div  style='font-size:500%; position:fixed; text-align: center; top:50%; bottom:50%; right:20%; left:20%'>+</div>","null","","","","","","500","","","","","","","","","","","","","","","","","","",""
"","sat_trial","","html-keyboard-response","111","1359419","0.0-21.0-1.8","Bono","bridget","","","","","","","","","","","","","","","","","","","","","975","<div style='bottom:60%; right:20%; left:20%; position:fixed'><img src=https://realitybending.github.io/IllusionGameSelfAssociation/experiment/SelfAssociation/stimuli/circle.png height=20%></img></div><div  style='font-size:500%; position:fixed; text-align: center; top:50%; bottom:50%; right:20%; left:20%'>+</div><div style = ""font-size:300%; text-align: center; position:fixed; top:70%; right:20%; left:20%""><b>You</div>","e","","","","","","","circle","9","match","mismatch","false","","Self","1","","","","","","","","","","",""
"","sat_feedback","","html-keyboard-response","112","1359920","0.0-21.0-2.8","Bono","bridget","","","","","","","","","","","","","","","","","","","","","null","<p style = 'font-size: 300%; color:red'>Incorrect!</p>","null","","","","","","","","","","","","","","","","","","","","","","","","",""
"","sat_fixationcross","","html-keyboard-response","113","1360428","0.0-21.0-0.9","Bono","bridget","","","","","","","","","","","","","","","","","","","","","null","<div  style='font-size:500%; position:fixed; text-align: center; top:50%; bottom:50%; right:20%; left:20%'>+</div>","null","","","","","","500","","","","","","","","","","","","","","","","","","",""
"","sat_trial","","html-keyboard-response","114","1361305","0.0-21.0-1.9","Bono","bridget","","","","","","","","","","","","","","","","","","","","","876","<div style='bottom:60%; right:20%; left:20%; position:fixed'><img src=https://realitybending.github.io/IllusionGameSelfAssociation/experiment/SelfAssociation/stimuli/triangle.png height=20%></img></div><div  style='font-size:500%; position:fixed; text-align: center; top:50%; bottom:50%; right:20%; left:20%'>+</div><div style = ""font-size:300%; text-align: center; position:fixed; top:70%; right:20%; left:20%""><b>bridget</div>","i","","","","","","","triangle","10","mismatch","mismatch","true","","Friend","1","","","","","","","","","","",""
"","sat_feedback","","html-keyboard-response","115","1361814","0.0-21.0-2.9","Bono","bridget","","","","","","","","","","","","","","","","","","","","","null","<p style = 'font-size: 300%; color:green'>Correct!</p>","null","","","","","","","","","","","","","","","","","","","","","","","","",""
"","sat_fixationcross","","html-keyboard-response","116","1362322","0.0-21.0-0.10","Bono","bridget","","","","","","","","","","","","","","","","","","","","","null","<div  style='font-size:500%; position:fixed; text-align: center; top:50%; bottom:50%; right:20%; left:20%'>+</div>","null","","","","","","500","","","","","","","","","","","","","","","","","","",""
"","sat_trial","","html-keyboard-response","117","1363609","0.0-21.0-1.10","Bono","bridget","","","","","","","","","","","","","","","","","","","","","1288","<div style='bottom:60%; right:20%; left:20%; position:fixed'><img src=https://realitybending.github.io/IllusionGameSelfAssociation/experiment/SelfAssociation/stimuli/circle.png height=20%></img></div><div  style='font-size:500%; position:fixed; text-align: center; top:50%; bottom:50%; right:20%; left:20%'>+</div><div style = ""font-size:300%; text-align: center; position:fixed; top:70%; right:20%; left:20%""><b>bridget</div>","e","","","","","","","circle","11","match","match","true","","Friend","1","","","","","","","","","","",""
"","sat_feedback","","html-keyboard-response","118","1364117","0.0-21.0-2.10","Bono","bridget","","","","","","","","","","","","","","","","","","","","","null","<p style = 'font-size: 300%; color:green'>Correct!</p>","null","","","","","","","","","","","","","","","","","","","","","","","","",""
"","sat_fixationcross","","html-keyboard-response","119","1364625","0.0-21.0-0.11","Bono","bridget","","","","","","","","","","","","","","","","","","","","","null","<div  style='font-size:500%; position:fixed; text-align: center; top:50%; bottom:50%; right:20%; left:20%'>+</div>","null","","","","","","500","","","","","","","","","","","","","","","","","","",""
"","sat_trial","","html-keyboard-response","120","1365929","0.0-21.0-1.11","Bono","bridget","","","","","","","","","","","","","","","","","","","","","1304","<div style='bottom:60%; right:20%; left:20%; position:fixed'><img src=https://realitybending.github.io/IllusionGameSelfAssociation/experiment/SelfAssociation/stimuli/triangle.png height=20%></img></div><div  style='font-size:500%; position:fixed; text-align: center; top:50%; bottom:50%; right:20%; left:20%'>+</div><div style = ""font-size:300%; text-align: center; position:fixed; top:70%; right:20%; left:20%""><b>bridget</div>","i","","","","","","","triangle","12","mismatch","mismatch","true","","Friend","1","","","","","","","","","","",""
"","sat_feedback","","html-keyboard-response","121","1366439","0.0-21.0-2.11","Bono","bridget","","","","","","","","","","","","","","","","","","","","","null","<p style = 'font-size: 300%; color:green'>Correct!</p>","null","","","","","","","","","","","","","","","","","","","","","","","","",""
"","sat_fixationcross","","html-keyboard-response","122","1366943","0.0-21.0-0.12","Bono","bridget","","","","","","","","","","","","","","","","","","","","","null","<div  style='font-size:500%; position:fixed; text-align: center; top:50%; bottom:50%; right:20%; left:20%'>+</div>","null","","","","","","500","","","","","","","","","","","","","","","","","","",""
"","sat_trial","","html-keyboard-response","123","1368162","0.0-21.0-1.12","Bono","bridget","","","","","","","","","","","","","","","","","","","","","1219","<div style='bottom:60%; right:20%; left:20%; position:fixed'><img src=https://realitybending.github.io/IllusionGameSelfAssociation/experiment/SelfAssociation/stimuli/square.png height=20%></img></div><div  style='font-size:500%; position:fixed; text-align: center; top:50%; bottom:50%; right:20%; left:20%'>+</div><div style = ""font-size:300%; text-align: center; position:fixed; top:70%; right:20%; left:20%""><b>Bono</div>","i","","","","","","","square","13","mismatch","mismatch","true","","Stranger","1","","","","","","","","","","",""
"","sat_feedback","","html-keyboard-response","124","1368668","0.0-21.0-2.12","Bono","bridget","","","","","","","","","","","","","","","","","","","","","null","<p style = 'font-size: 300%; color:green'>Correct!</p>","null","","","","","","","","","","","","","","","","","","","","","","","","",""
"","sat_fixationcross","","html-keyboard-response","125","1369173","0.0-21.0-0.13","Bono","bridget","","","","","","","","","","","","","","","","","","","","","null","<div  style='font-size:500%; position:fixed; text-align: center; top:50%; bottom:50%; right:20%; left:20%'>+</div>","null","","","","","","500","","","","","","","","","","","","","","","","","","",""
"","sat_trial","","html-keyboard-response","126","1370179","0.0-21.0-1.13","Bono","bridget","","","","","","","","","","","","","","","","","","","","","1004","<div style='bottom:60%; right:20%; left:20%; position:fixed'><img src=https://realitybending.github.io/IllusionGameSelfAssociation/experiment/SelfAssociation/stimuli/circle.png height=20%></img></div><div  style='font-size:500%; position:fixed; text-align: center; top:50%; bottom:50%; right:20%; left:20%'>+</div><div style = ""font-size:300%; text-align: center; position:fixed; top:70%; right:20%; left:20%""><b>bridget</div>","e","","","","","","","circle","14","match","match","true","","Friend","1","","","","","","","","","","",""
"","sat_feedback","","html-keyboard-response","127","1370680","0.0-21.0-2.13","Bono","bridget","","","","","","","","","","","","","","","","","","","","","null","<p style = 'font-size: 300%; color:green'>Correct!</p>","null","","","","","","","","","","","","","","","","","","","","","","","","",""
"","sat_fixationcross","","html-keyboard-response","128","1371189","0.0-21.0-0.14","Bono","bridget","","","","","","","","","","","","","","","","","","","","","null","<div  style='font-size:500%; position:fixed; text-align: center; top:50%; bottom:50%; right:20%; left:20%'>+</div>","null","","","","","","500","","","","","","","","","","","","","","","","","","",""
"","sat_trial","","html-keyboard-response","129","1371914","0.0-21.0-1.14","Bono","bridget","","","","","","","","","","","","","","","","","","","","","724","<div style='bottom:60%; right:20%; left:20%; position:fixed'><img src=https://realitybending.github.io/IllusionGameSelfAssociation/experiment/SelfAssociation/stimuli/circle.png height=20%></img></div><div  style='font-size:500%; position:fixed; text-align: center; top:50%; bottom:50%; right:20%; left:20%'>+</div><div style = ""font-size:300%; text-align: center; position:fixed; top:70%; right:20%; left:20%""><b>bridget</div>","e","","","","","","","circle","15","match","match","true","","Friend","1","","","","","","","","","","",""
"","sat_feedback","","html-keyboard-response","130","1372435","0.0-21.0-2.14","Bono","bridget","","","","","","","","","","","","","","","","","","","","","null","<p style = 'font-size: 300%; color:green'>Correct!</p>","null","","","","","","","","","","","","","","","","","","","","","","","","",""
"","sat_fixationcross","","html-keyboard-response","131","1372943","0.0-21.0-0.15","Bono","bridget","","","","","","","","","","","","","","","","","","","","","null","<div  style='font-size:500%; position:fixed; text-align: center; top:50%; bottom:50%; right:20%; left:20%'>+</div>","null","","","","","","500","","","","","","","","","","","","","","","","","","",""
"","sat_trial","","html-keyboard-response","132","1374059","0.0-21.0-1.15","Bono","bridget","","","","","","","","","","","","","","","","","","","","","1116","<div style='bottom:60%; right:20%; left:20%; position:fixed'><img src=https://realitybending.github.io/IllusionGameSelfAssociation/experiment/SelfAssociation/stimuli/square.png height=20%></img></div><div  style='font-size:500%; position:fixed; text-align: center; top:50%; bottom:50%; right:20%; left:20%'>+</div><div style = ""font-size:300%; text-align: center; position:fixed; top:70%; right:20%; left:20%""><b>bridget</div>","i","","","","","","","square","16","mismatch","mismatch","true","","Friend","1","","","","","","","","","","",""
"","sat_feedback","","html-keyboard-response","133","1374566","0.0-21.0-2.15","Bono","bridget","","","","","","","","","","","","","","","","","","","","","null","<p style = 'font-size: 300%; color:green'>Correct!</p>","null","","","","","","","","","","","","","","","","","","","","","","","","",""
"","sat_fixationcross","","html-keyboard-response","134","1375074","0.0-21.0-0.16","Bono","bridget","","","","","","","","","","","","","","","","","","","","","null","<div  style='font-size:500%; position:fixed; text-align: center; top:50%; bottom:50%; right:20%; left:20%'>+</div>","null","","","","","","500","","","","","","","","","","","","","","","","","","",""
"","sat_trial","","html-keyboard-response","135","1375970","0.0-21.0-1.16","Bono","bridget","","","","","","","","","","","","","","","","","","","","","895","<div style='bottom:60%; right:20%; left:20%; position:fixed'><img src=https://realitybending.github.io/IllusionGameSelfAssociation/experiment/SelfAssociation/stimuli/triangle.png height=20%></img></div><div  style='font-size:500%; position:fixed; text-align: center; top:50%; bottom:50%; right:20%; left:20%'>+</div><div style = ""font-size:300%; text-align: center; position:fixed; top:70%; right:20%; left:20%""><b>bridget</div>","e","","","","","","","triangle","17","match","mismatch","false","","Friend","1","","","","","","","","","","",""
"","sat_feedback","","html-keyboard-response","136","1376473","0.0-21.0-2.16","Bono","bridget","","","","","","","","","","","","","","","","","","","","","null","<p style = 'font-size: 300%; color:red'>Incorrect!</p>","null","","","","","","","","","","","","","","","","","","","","","","","","",""
"","sat_fixationcross","","html-keyboard-response","137","1376979","0.0-21.0-0.17","Bono","bridget","","","","","","","","","","","","","","","","","","","","","null","<div  style='font-size:500%; position:fixed; text-align: center; top:50%; bottom:50%; right:20%; left:20%'>+</div>","null","","","","","","500","","","","","","","","","","","","","","","","","","",""
"","sat_trial","","html-keyboard-response","138","1378128","0.0-21.0-1.17","Bono","bridget","","","","","","","","","","","","","","","","","","","","","1147","<div style='bottom:60%; right:20%; left:20%; position:fixed'><img src=https://realitybending.github.io/IllusionGameSelfAssociation/experiment/SelfAssociation/stimuli/triangle.png height=20%></img></div><div  style='font-size:500%; position:fixed; text-align: center; top:50%; bottom:50%; right:20%; left:20%'>+</div><div style = ""font-size:300%; text-align: center; position:fixed; top:70%; right:20%; left:20%""><b>Bono</div>","i","","","","","","","triangle","18","mismatch","match","false","","Stranger","1","","","","","","","","","","",""
"","sat_feedback","","html-keyboard-response","139","1378639","0.0-21.0-2.17","Bono","bridget","","","","","","","","","","","","","","","","","","","","","null","<p style = 'font-size: 300%; color:red'>Incorrect!</p>","null","","","","","","","","","","","","","","","","","","","","","","","","",""
"","sat_fixationcross","","html-keyboard-response","140","1379149","0.0-21.0-0.18","Bono","bridget","","","","","","","","","","","","","","","","","","","","","null","<div  style='font-size:500%; position:fixed; text-align: center; top:50%; bottom:50%; right:20%; left:20%'>+</div>","null","","","","","","500","","","","","","","","","","","","","","","","","","",""
"","sat_trial","","html-keyboard-response","141","1379928","0.0-21.0-1.18","Bono","bridget","","","","","","","","","","","","","","","","","","","","","779","<div style='bottom:60%; right:20%; left:20%; position:fixed'><img src=https://realitybending.github.io/IllusionGameSelfAssociation/experiment/SelfAssociation/stimuli/circle.png height=20%></img></div><div  style='font-size:500%; position:fixed; text-align: center; top:50%; bottom:50%; right:20%; left:20%'>+</div><div style = ""font-size:300%; text-align: center; position:fixed; top:70%; right:20%; left:20%""><b>bridget</div>","e","","","","","","","circle","19","match","match","true","","Friend","1","","","","","","","","","","",""
"","sat_feedback","","html-keyboard-response","142","1380437","0.0-21.0-2.18","Bono","bridget","","","","","","","","","","","","","","","","","","","","","null","<p style = 'font-size: 300%; color:green'>Correct!</p>","null","","","","","","","","","","","","","","","","","","","","","","","","",""
"","sat_fixationcross","","html-keyboard-response","143","1380945","0.0-21.0-0.19","Bono","bridget","","","","","","","","","","","","","","","","","","","","","null","<div  style='font-size:500%; position:fixed; text-align: center; top:50%; bottom:50%; right:20%; left:20%'>+</div>","null","","","","","","500","","","","","","","","","","","","","","","","","","",""
"","sat_trial","","html-keyboard-response","144","1382025","0.0-21.0-1.19","Bono","bridget","","","","","","","","","","","","","","","","","","","","","1080","<div style='bottom:60%; right:20%; left:20%; position:fixed'><img src=https://realitybending.github.io/IllusionGameSelfAssociation/experiment/SelfAssociation/stimuli/square.png height=20%></img></div><div  style='font-size:500%; position:fixed; text-align: center; top:50%; bottom:50%; right:20%; left:20%'>+</div><div style = ""font-size:300%; text-align: center; position:fixed; top:70%; right:20%; left:20%""><b>bridget</div>","i","","","","","","","square","20","mismatch","mismatch","true","","Friend","1","","","","","","","","","","",""
"","sat_feedback","","html-keyboard-response","145","1382532","0.0-21.0-2.19","Bono","bridget","","","","","","","","","","","","","","","","","","","","","null","<p style = 'font-size: 300%; color:green'>Correct!</p>","null","","","","","","","","","","","","","","","","","","","","","","","","",""
"","sat_fixationcross","","html-keyboard-response","146","1383038","0.0-21.0-0.20","Bono","bridget","","","","","","","","","","","","","","","","","","","","","null","<div  style='font-size:500%; position:fixed; text-align: center; top:50%; bottom:50%; right:20%; left:20%'>+</div>","null","","","","","","500","","","","","","","","","","","","","","","","","","",""
"","sat_trial","","html-keyboard-response","147","1383866","0.0-21.0-1.20","Bono","bridget","","","","","","","","","","","","","","","","","","","","","827","<div style='bottom:60%; right:20%; left:20%; position:fixed'><img src=https://realitybending.github.io/IllusionGameSelfAssociation/experiment/SelfAssociation/stimuli/square.png height=20%></img></div><div  style='font-size:500%; position:fixed; text-align: center; top:50%; bottom:50%; right:20%; left:20%'>+</div><div style = ""font-size:300%; text-align: center; position:fixed; top:70%; right:20%; left:20%""><b>You</div>","e","","","","","","","square","21","match","match","true","","Self","1","","","","","","","","","","",""
"","sat_feedback","","html-keyboard-response","148","1384377","0.0-21.0-2.20","Bono","bridget","","","","","","","","","","","","","","","","","","","","","null","<p style = 'font-size: 300%; color:green'>Correct!</p>","null","","","","","","","","","","","","","","","","","","","","","","","","",""
"","sat_fixationcross","","html-keyboard-response","149","1384885","0.0-21.0-0.21","Bono","bridget","","","","","","","","","","","","","","","","","","","","","null","<div  style='font-size:500%; position:fixed; text-align: center; top:50%; bottom:50%; right:20%; left:20%'>+</div>","null","","","","","","500","","","","","","","","","","","","","","","","","","",""
"","sat_trial","","html-keyboard-response","150","1385968","0.0-21.0-1.21","Bono","bridget","","","","","","","","","","","","","","","","","","","","","1080","<div style='bottom:60%; right:20%; left:20%; position:fixed'><img src=https://realitybending.github.io/IllusionGameSelfAssociation/experiment/SelfAssociation/stimuli/circle.png height=20%></img></div><div  style='font-size:500%; position:fixed; text-align: center; top:50%; bottom:50%; right:20%; left:20%'>+</div><div style = ""font-size:300%; text-align: center; position:fixed; top:70%; right:20%; left:20%""><b>Bono</div>","i","","","","","","","circle","22","mismatch","mismatch","true","","Stranger","1","","","","","","","","","","",""
"","sat_feedback","","html-keyboard-response","151","1386473","0.0-21.0-2.21","Bono","bridget","","","","","","","","","","","","","","","","","","","","","null","<p style = 'font-size: 300%; color:green'>Correct!</p>","null","","","","","","","","","","","","","","","","","","","","","","","","",""
"","sat_fixationcross","","html-keyboard-response","152","1386983","0.0-21.0-0.22","Bono","bridget","","","","","","","","","","","","","","","","","","","","","null","<div  style='font-size:500%; position:fixed; text-align: center; top:50%; bottom:50%; right:20%; left:20%'>+</div>","null","","","","","","500","","","","","","","","","","","","","","","","","","",""
"","sat_trial","","html-keyboard-response","153","1388145","0.0-21.0-1.22","Bono","bridget","","","","","","","","","","","","","","","","","","","","","1161","<div style='bottom:60%; right:20%; left:20%; position:fixed'><img src=https://realitybending.github.io/IllusionGameSelfAssociation/experiment/SelfAssociation/stimuli/square.png height=20%></img></div><div  style='font-size:500%; position:fixed; text-align: center; top:50%; bottom:50%; right:20%; left:20%'>+</div><div style = ""font-size:300%; text-align: center; position:fixed; top:70%; right:20%; left:20%""><b>bridget</div>","e","","","","","","","square","23","match","mismatch","false","","Friend","1","","","","","","","","","","",""
"","sat_feedback","","html-keyboard-response","154","1388645","0.0-21.0-2.22","Bono","bridget","","","","","","","","","","","","","","","","","","","","","null","<p style = 'font-size: 300%; color:red'>Incorrect!</p>","null","","","","","","","","","","","","","","","","","","","","","","","","",""
"","sat_fixationcross","","html-keyboard-response","155","1389157","0.0-21.0-0.23","Bono","bridget","","","","","","","","","","","","","","","","","","","","","null","<div  style='font-size:500%; position:fixed; text-align: center; top:50%; bottom:50%; right:20%; left:20%'>+</div>","null","","","","","","500","","","","","","","","","","","","","","","","","","",""
"","sat_trial","","html-keyboard-response","156","1390306","0.0-21.0-1.23","Bono","bridget","","","","","","","","","","","","","","","","","","","","","1147","<div style='bottom:60%; right:20%; left:20%; position:fixed'><img src=https://realitybending.github.io/IllusionGameSelfAssociation/experiment/SelfAssociation/stimuli/triangle.png height=20%></img></div><div  style='font-size:500%; position:fixed; text-align: center; top:50%; bottom:50%; right:20%; left:20%'>+</div><div style = ""font-size:300%; text-align: center; position:fixed; top:70%; right:20%; left:20%""><b>Bono</div>","i","","","","","","","triangle","24","mismatch","match","false","","Stranger","1","","","","","","","","","","",""
"","sat_feedback","","html-keyboard-response","157","1390812","0.0-21.0-2.23","Bono","bridget","","","","","","","","","","","","","","","","","","","","","null","<p style = 'font-size: 300%; color:red'>Incorrect!</p>","null","","","","","","","","","","","","","","","","","","","","","","","","",""
"","sat_fixationcross","","html-keyboard-response","158","1391321","0.0-21.0-0.24","Bono","bridget","","","","","","","","","","","","","","","","","","","","","null","<div  style='font-size:500%; position:fixed; text-align: center; top:50%; bottom:50%; right:20%; left:20%'>+</div>","null","","","","","","500","","","","","","","","","","","","","","","","","","",""
"","sat_trial","","html-keyboard-response","159","1392213","0.0-21.0-1.24","Bono","bridget","","","","","","","","","","","","","","","","","","","","","892","<div style='bottom:60%; right:20%; left:20%; position:fixed'><img src=https://realitybending.github.io/IllusionGameSelfAssociation/experiment/SelfAssociation/stimuli/circle.png height=20%></img></div><div  style='font-size:500%; position:fixed; text-align: center; top:50%; bottom:50%; right:20%; left:20%'>+</div><div style = ""font-size:300%; text-align: center; position:fixed; top:70%; right:20%; left:20%""><b>Bono</div>","i","","","","","","","circle","25","mismatch","mismatch","true","","Stranger","1","","","","","","","","","","",""
"","sat_feedback","","html-keyboard-response","160","1392723","0.0-21.0-2.24","Bono","bridget","","","","","","","","","","","","","","","","","","","","","null","<p style = 'font-size: 300%; color:green'>Correct!</p>","null","","","","","","","","","","","","","","","","","","","","","","","","",""
"","sat_fixationcross","","html-keyboard-response","161","1393233","0.0-21.0-0.25","Bono","bridget","","","","","","","","","","","","","","","","","","","","","null","<div  style='font-size:500%; position:fixed; text-align: center; top:50%; bottom:50%; right:20%; left:20%'>+</div>","null","","","","","","500","","","","","","","","","","","","","","","","","","",""
"","sat_trial","","html-keyboard-response","162","1394024","0.0-21.0-1.25","Bono","bridget","","","","","","","","","","","","","","","","","","","","","791","<div style='bottom:60%; right:20%; left:20%; position:fixed'><img src=https://realitybending.github.io/IllusionGameSelfAssociation/experiment/SelfAssociation/stimuli/square.png height=20%></img></div><div  style='font-size:500%; position:fixed; text-align: center; top:50%; bottom:50%; right:20%; left:20%'>+</div><div style = ""font-size:300%; text-align: center; position:fixed; top:70%; right:20%; left:20%""><b>Bono</div>","i","","","","","","","square","26","mismatch","mismatch","true","","Stranger","1","","","","","","","","","","",""
"","sat_feedback","","html-keyboard-response","163","1394528","0.0-21.0-2.25","Bono","bridget","","","","","","","","","","","","","","","","","","","","","null","<p style = 'font-size: 300%; color:green'>Correct!</p>","null","","","","","","","","","","","","","","","","","","","","","","","","",""
"","sat_fixationcross","","html-keyboard-response","164","1395035","0.0-21.0-0.26","Bono","bridget","","","","","","","","","","","","","","","","","","","","","null","<div  style='font-size:500%; position:fixed; text-align: center; top:50%; bottom:50%; right:20%; left:20%'>+</div>","null","","","","","","500","","","","","","","","","","","","","","","","","","",""
"","sat_trial","","html-keyboard-response","165","1395793","0.0-21.0-1.26","Bono","bridget","","","","","","","","","","","","","","","","","","","","","758","<div style='bottom:60%; right:20%; left:20%; position:fixed'><img src=https://realitybending.github.io/IllusionGameSelfAssociation/experiment/SelfAssociation/stimuli/circle.png height=20%></img></div><div  style='font-size:500%; position:fixed; text-align: center; top:50%; bottom:50%; right:20%; left:20%'>+</div><div style = ""font-size:300%; text-align: center; position:fixed; top:70%; right:20%; left:20%""><b>You</div>","e","","","","","","","circle","27","match","mismatch","false","","Self","1","","","","","","","","","","",""
"","sat_feedback","","html-keyboard-response","166","1396297","0.0-21.0-2.26","Bono","bridget","","","","","","","","","","","","","","","","","","","","","null","<p style = 'font-size: 300%; color:red'>Incorrect!</p>","null","","","","","","","","","","","","","","","","","","","","","","","","",""
"","sat_fixationcross","","html-keyboard-response","167","1396805","0.0-21.0-0.27","Bono","bridget","","","","","","","","","","","","","","","","","","","","","null","<div  style='font-size:500%; position:fixed; text-align: center; top:50%; bottom:50%; right:20%; left:20%'>+</div>","null","","","","","","500","","","","","","","","","","","","","","","","","","",""
"","sat_trial","","html-keyboard-response","168","1397810","0.0-21.0-1.27","Bono","bridget","","","","","","","","","","","","","","","","","","","","","1003","<div style='bottom:60%; right:20%; left:20%; position:fixed'><img src=https://realitybending.github.io/IllusionGameSelfAssociation/experiment/SelfAssociation/stimuli/triangle.png height=20%></img></div><div  style='font-size:500%; position:fixed; text-align: center; top:50%; bottom:50%; right:20%; left:20%'>+</div><div style = ""font-size:300%; text-align: center; position:fixed; top:70%; right:20%; left:20%""><b>bridget</div>","e","","","","","","","triangle","28","match","mismatch","false","","Friend","1","","","","","","","","","","",""
"","sat_feedback","","html-keyboard-response","169","1398354","0.0-21.0-2.27","Bono","bridget","","","","","","","","","","","","","","","","","","","","","null","<p style = 'font-size: 300%; color:red'>Incorrect!</p>","null","","","","","","","","","","","","","","","","","","","","","","","","",""
"","sat_fixationcross","","html-keyboard-response","170","1398860","0.0-21.0-0.28","Bono","bridget","","","","","","","","","","","","","","","","","","","","","null","<div  style='font-size:500%; position:fixed; text-align: center; top:50%; bottom:50%; right:20%; left:20%'>+</div>","null","","","","","","500","","","","","","","","","","","","","","","","","","",""
"","sat_trial","","html-keyboard-response","171","1399688","0.0-21.0-1.28","Bono","bridget","","","","","","","","","","","","","","","","","","","","","827","<div style='bottom:60%; right:20%; left:20%; position:fixed'><img src=https://realitybending.github.io/IllusionGameSelfAssociation/experiment/SelfAssociation/stimuli/triangle.png height=20%></img></div><div  style='font-size:500%; position:fixed; text-align: center; top:50%; bottom:50%; right:20%; left:20%'>+</div><div style = ""font-size:300%; text-align: center; position:fixed; top:70%; right:20%; left:20%""><b>bridget</div>","i","","","","","","","triangle","29","mismatch","mismatch","true","","Friend","1","","","","","","","","","","",""
"","sat_feedback","","html-keyboard-response","172","1400198","0.0-21.0-2.28","Bono","bridget","","","","","","","","","","","","","","","","","","","","","null","<p style = 'font-size: 300%; color:green'>Correct!</p>","null","","","","","","","","","","","","","","","","","","","","","","","","",""
"","sat_fixationcross","","html-keyboard-response","173","1400707","0.0-21.0-0.29","Bono","bridget","","","","","","","","","","","","","","","","","","","","","null","<div  style='font-size:500%; position:fixed; text-align: center; top:50%; bottom:50%; right:20%; left:20%'>+</div>","null","","","","","","500","","","","","","","","","","","","","","","","","","",""
"","sat_trial","","html-keyboard-response","174","1401594","0.0-21.0-1.29","Bono","bridget","","","","","","","","","","","","","","","","","","","","","886","<div style='bottom:60%; right:20%; left:20%; position:fixed'><img src=https://realitybending.github.io/IllusionGameSelfAssociation/experiment/SelfAssociation/stimuli/square.png height=20%></img></div><div  style='font-size:500%; position:fixed; text-align: center; top:50%; bottom:50%; right:20%; left:20%'>+</div><div style = ""font-size:300%; text-align: center; position:fixed; top:70%; right:20%; left:20%""><b>Bono</div>","i","","","","","","","square","30","mismatch","mismatch","true","","Stranger","1","","","","","","","","","","",""
"","sat_feedback","","html-keyboard-response","175","1402110","0.0-21.0-2.29","Bono","bridget","","","","","","","","","","","","","","","","","","","","","null","<p style = 'font-size: 300%; color:green'>Correct!</p>","null","","","","","","","","","","","","","","","","","","","","","","","","",""
"","sat_fixationcross","","html-keyboard-response","176","1402616","0.0-21.0-0.30","Bono","bridget","","","","","","","","","","","","","","","","","","","","","null","<div  style='font-size:500%; position:fixed; text-align: center; top:50%; bottom:50%; right:20%; left:20%'>+</div>","null","","","","","","500","","","","","","","","","","","","","","","","","","",""
"","sat_trial","","html-keyboard-response","177","1403387","0.0-21.0-1.30","Bono","bridget","","","","","","","","","","","","","","","","","","","","","769","<div style='bottom:60%; right:20%; left:20%; position:fixed'><img src=https://realitybending.github.io/IllusionGameSelfAssociation/experiment/SelfAssociation/stimuli/triangle.png height=20%></img></div><div  style='font-size:500%; position:fixed; text-align: center; top:50%; bottom:50%; right:20%; left:20%'>+</div><div style = ""font-size:300%; text-align: center; position:fixed; top:70%; right:20%; left:20%""><b>Bono</div>","e","","","","","","","triangle","31","match","match","true","","Stranger","1","","","","","","","","","","",""
"","sat_feedback","","html-keyboard-response","178","1403899","0.0-21.0-2.30","Bono","bridget","","","","","","","","","","","","","","","","","","","","","null","<p style = 'font-size: 300%; color:green'>Correct!</p>","null","","","","","","","","","","","","","","","","","","","","","","","","",""
"","sat_fixationcross","","html-keyboard-response","179","1404409","0.0-21.0-0.31","Bono","bridget","","","","","","","","","","","","","","","","","","","","","null","<div  style='font-size:500%; position:fixed; text-align: center; top:50%; bottom:50%; right:20%; left:20%'>+</div>","null","","","","","","500","","","","","","","","","","","","","","","","","","",""
"","sat_trial","","html-keyboard-response","180","1405420","0.0-21.0-1.31","Bono","bridget","","","","","","","","","","","","","","","","","","","","","1010","<div style='bottom:60%; right:20%; left:20%; position:fixed'><img src=https://realitybending.github.io/IllusionGameSelfAssociation/experiment/SelfAssociation/stimuli/square.png height=20%></img></div><div  style='font-size:500%; position:fixed; text-align: center; top:50%; bottom:50%; right:20%; left:20%'>+</div><div style = ""font-size:300%; text-align: center; position:fixed; top:70%; right:20%; left:20%""><b>Bono</div>","i","","","","","","","square","32","mismatch","mismatch","true","","Stranger","1","","","","","","","","","","",""
"","sat_feedback","","html-keyboard-response","181","1405920","0.0-21.0-2.31","Bono","bridget","","","","","","","","","","","","","","","","","","","","","null","<p style = 'font-size: 300%; color:green'>Correct!</p>","null","","","","","","","","","","","","","","","","","","","","","","","","",""
"","sat_fixationcross","","html-keyboard-response","182","1406430","0.0-21.0-0.32","Bono","bridget","","","","","","","","","","","","","","","","","","","","","null","<div  style='font-size:500%; position:fixed; text-align: center; top:50%; bottom:50%; right:20%; left:20%'>+</div>","null","","","","","","500","","","","","","","","","","","","","","","","","","",""
"","sat_trial","","html-keyboard-response","183","1407189","0.0-21.0-1.32","Bono","bridget","","","","","","","","","","","","","","","","","","","","","757","<div style='bottom:60%; right:20%; left:20%; position:fixed'><img src=https://realitybending.github.io/IllusionGameSelfAssociation/experiment/SelfAssociation/stimuli/circle.png height=20%></img></div><div  style='font-size:500%; position:fixed; text-align: center; top:50%; bottom:50%; right:20%; left:20%'>+</div><div style = ""font-size:300%; text-align: center; position:fixed; top:70%; right:20%; left:20%""><b>Bono</div>","i","","","","","","","circle","33","mismatch","mismatch","true","","Stranger","1","","","","","","","","","","",""
"","sat_feedback","","html-keyboard-response","184","1407690","0.0-21.0-2.32","Bono","bridget","","","","","","","","","","","","","","","","","","","","","null","<p style = 'font-size: 300%; color:green'>Correct!</p>","null","","","","","","","","","","","","","","","","","","","","","","","","",""
"","sat_fixationcross","","html-keyboard-response","185","1408197","0.0-21.0-0.33","Bono","bridget","","","","","","","","","","","","","","","","","","","","","null","<div  style='font-size:500%; position:fixed; text-align: center; top:50%; bottom:50%; right:20%; left:20%'>+</div>","null","","","","","","500","","","","","","","","","","","","","","","","","","",""
"","sat_trial","","html-keyboard-response","186","1409112","0.0-21.0-1.33","Bono","bridget","","","","","","","","","","","","","","","","","","","","","913","<div style='bottom:60%; right:20%; left:20%; position:fixed'><img src=https://realitybending.github.io/IllusionGameSelfAssociation/experiment/SelfAssociation/stimuli/square.png height=20%></img></div><div  style='font-size:500%; position:fixed; text-align: center; top:50%; bottom:50%; right:20%; left:20%'>+</div><div style = ""font-size:300%; text-align: center; position:fixed; top:70%; right:20%; left:20%""><b>You</div>","e","","","","","","","square","34","match","match","true","","Self","1","","","","","","","","","","",""
"","sat_feedback","","html-keyboard-response","187","1409627","0.0-21.0-2.33","Bono","bridget","","","","","","","","","","","","","","","","","","","","","null","<p style = 'font-size: 300%; color:green'>Correct!</p>","null","","","","","","","","","","","","","","","","","","","","","","","","",""
"","sat_fixationcross","","html-keyboard-response","188","1410136","0.0-21.0-0.34","Bono","bridget","","","","","","","","","","","","","","","","","","","","","null","<div  style='font-size:500%; position:fixed; text-align: center; top:50%; bottom:50%; right:20%; left:20%'>+</div>","null","","","","","","500","","","","","","","","","","","","","","","","","","",""
"","sat_trial","","html-keyboard-response","189","1410920","0.0-21.0-1.34","Bono","bridget","","","","","","","","","","","","","","","","","","","","","784","<div style='bottom:60%; right:20%; left:20%; position:fixed'><img src=https://realitybending.github.io/IllusionGameSelfAssociation/experiment/SelfAssociation/stimuli/triangle.png height=20%></img></div><div  style='font-size:500%; position:fixed; text-align: center; top:50%; bottom:50%; right:20%; left:20%'>+</div><div style = ""font-size:300%; text-align: center; position:fixed; top:70%; right:20%; left:20%""><b>bridget</div>","e","","","","","","","triangle","35","match","mismatch","false","","Friend","1","","","","","","","","","","",""
"","sat_feedback","","html-keyboard-response","190","1411433","0.0-21.0-2.34","Bono","bridget","","","","","","","","","","","","","","","","","","","","","null","<p style = 'font-size: 300%; color:red'>Incorrect!</p>","null","","","","","","","","","","","","","","","","","","","","","","","","",""
"","sat_fixationcross","","html-keyboard-response","191","1411941","0.0-21.0-0.35","Bono","bridget","","","","","","","","","","","","","","","","","","","","","null","<div  style='font-size:500%; position:fixed; text-align: center; top:50%; bottom:50%; right:20%; left:20%'>+</div>","null","","","","","","500","","","","","","","","","","","","","","","","","","",""
"","sat_trial","","html-keyboard-response","192","1412647","0.0-21.0-1.35","Bono","bridget","","","","","","","","","","","","","","","","","","","","","707","<div style='bottom:60%; right:20%; left:20%; position:fixed'><img src=https://realitybending.github.io/IllusionGameSelfAssociation/experiment/SelfAssociation/stimuli/square.png height=20%></img></div><div  style='font-size:500%; position:fixed; text-align: center; top:50%; bottom:50%; right:20%; left:20%'>+</div><div style = ""font-size:300%; text-align: center; position:fixed; top:70%; right:20%; left:20%""><b>Bono</div>","i","","","","","","","square","36","mismatch","mismatch","true","","Stranger","1","","","","","","","","","","",""
"","sat_feedback","","html-keyboard-response","193","1413160","0.0-21.0-2.35","Bono","bridget","","","","","","","","","","","","","","","","","","","","","null","<p style = 'font-size: 300%; color:green'>Correct!</p>","null","","","","","","","","","","","","","","","","","","","","","","","","",""
"","sat_fixationcross","","html-keyboard-response","194","1413666","0.0-21.0-0.36","Bono","bridget","","","","","","","","","","","","","","","","","","","","","null","<div  style='font-size:500%; position:fixed; text-align: center; top:50%; bottom:50%; right:20%; left:20%'>+</div>","null","","","","","","500","","","","","","","","","","","","","","","","","","",""
"","sat_trial","","html-keyboard-response","195","1415003","0.0-21.0-1.36","Bono","bridget","","","","","","","","","","","","","","","","","","","","","1336","<div style='bottom:60%; right:20%; left:20%; position:fixed'><img src=https://realitybending.github.io/IllusionGameSelfAssociation/experiment/SelfAssociation/stimuli/triangle.png height=20%></img></div><div  style='font-size:500%; position:fixed; text-align: center; top:50%; bottom:50%; right:20%; left:20%'>+</div><div style = ""font-size:300%; text-align: center; position:fixed; top:70%; right:20%; left:20%""><b>You</div>","i","","","","","","","triangle","37","mismatch","mismatch","true","","Self","1","","","","","","","","","","",""
"","sat_feedback","","html-keyboard-response","196","1415515","0.0-21.0-2.36","Bono","bridget","","","","","","","","","","","","","","","","","","","","","null","<p style = 'font-size: 300%; color:green'>Correct!</p>","null","","","","","","","","","","","","","","","","","","","","","","","","",""
"","sat_fixationcross","","html-keyboard-response","197","1416023","0.0-21.0-0.37","Bono","bridget","","","","","","","","","","","","","","","","","","","","","null","<div  style='font-size:500%; position:fixed; text-align: center; top:50%; bottom:50%; right:20%; left:20%'>+</div>","null","","","","","","500","","","","","","","","","","","","","","","","","","",""
"","sat_trial","","html-keyboard-response","198","1417060","0.0-21.0-1.37","Bono","bridget","","","","","","","","","","","","","","","","","","","","","1035","<div style='bottom:60%; right:20%; left:20%; position:fixed'><img src=https://realitybending.github.io/IllusionGameSelfAssociation/experiment/SelfAssociation/stimuli/triangle.png height=20%></img></div><div  style='font-size:500%; position:fixed; text-align: center; top:50%; bottom:50%; right:20%; left:20%'>+</div><div style = ""font-size:300%; text-align: center; position:fixed; top:70%; right:20%; left:20%""><b>Bono</div>","i","","","","","","","triangle","38","mismatch","match","false","","Stranger","1","","","","","","","","","","",""
"","sat_feedback","","html-keyboard-response","199","1417565","0.0-21.0-2.37","Bono","bridget","","","","","","","","","","","","","","","","","","","","","null","<p style = 'font-size: 300%; color:red'>Incorrect!</p>","null","","","","","","","","","","","","","","","","","","","","","","","","",""
"","sat_fixationcross","","html-keyboard-response","200","1418073","0.0-21.0-0.38","Bono","bridget","","","","","","","","","","","","","","","","","","","","","null","<div  style='font-size:500%; position:fixed; text-align: center; top:50%; bottom:50%; right:20%; left:20%'>+</div>","null","","","","","","500","","","","","","","","","","","","","","","","","","",""
"","sat_trial","","html-keyboard-response","201","1419053","0.0-21.0-1.38","Bono","bridget","","","","","","","","","","","","","","","","","","","","","980","<div style='bottom:60%; right:20%; left:20%; position:fixed'><img src=https://realitybending.github.io/IllusionGameSelfAssociation/experiment/SelfAssociation/stimuli/triangle.png height=20%></img></div><div  style='font-size:500%; position:fixed; text-align: center; top:50%; bottom:50%; right:20%; left:20%'>+</div><div style = ""font-size:300%; text-align: center; position:fixed; top:70%; right:20%; left:20%""><b>bridget</div>","e","","","","","","","triangle","39","match","mismatch","false","","Friend","1","","","","","","","","","","",""
"","sat_feedback","","html-keyboard-response","202","1419557","0.0-21.0-2.38","Bono","bridget","","","","","","","","","","","","","","","","","","","","","null","<p style = 'font-size: 300%; color:red'>Incorrect!</p>","null","","","","","","","","","","","","","","","","","","","","","","","","",""
"","sat_fixationcross","","html-keyboard-response","203","1420084","0.0-21.0-0.39","Bono","bridget","","","","","","","","","","","","","","","","","","","","","null","<div  style='font-size:500%; position:fixed; text-align: center; top:50%; bottom:50%; right:20%; left:20%'>+</div>","null","","","","","","500","","","","","","","","","","","","","","","","","","",""
