"success","screen","group","trial_type","trial_index","time_elapsed","internal_node_id","label_stranger","label_friend","rt","response","question_order","timeout","failed_images","failed_audio","failed_video","stimulus","trial_duration","shape","trial_number","answer","answer_correct","correct","condition","label_condition","block_number","file","block","correct_response","Illusion_Type","Illusion_Strength","Illusion_Difference","isi","fixation_cross","type","illusion_strength","illusion_difference"
"true","fullscreen","ketamine_T1","fullscreen","0","1714","0.0-0.0","Seal","Martijn","","","","","","","","","","","","","","","","","","","","","","","","","","","",""
"","","","survey-text","1","7689","0.0-1.0","Seal","Martijn","5974","{""Q0"":""3541""}","","","","","","","","","","","","","","","","","","","","","","","","","",""
"","","","survey-text","2","42752","0.0-2.0","Seal","Martijn","35059","{""Q0"":""11-07-2024""}","","","","","","","","","","","","","","","","","","","","","","","","","",""
"","psychedelics_1","","survey-multi-choice","3","45739","0.0-3.0","Seal","Martijn","2987","{""meditate"":""Yes""}","[0]","","","","","","","","","","","","","","","","","","","","","","","","",""
"","demographics_1","","survey-multi-choice","4","57638","0.0-4.0-0.0","Seal","Martijn","11898","{""sex"":""Male"",""student"":""No"",""education"":""University (masters) <sub><sup>or equivalent</sup></sub>"",""language"":""Native""}","[0,1,2,3]","","","","","","","","","","","","","","","","","","","","","","","","",""
"","demographics_2","","survey-text","5","64999","0.0-4.0-1.0","Seal","Martijn","7360","{""age"":""49"",""country"":""Netherlands""}","","","","","","","","","","","","","","","","","","","","","","","","","",""
"true","","","preload","6","65136","0.0-5.0","Seal","Martijn","","","","false","[]","[]","[]","","","","","","","","","","","","","","","","","","","","",""
"","SAT_instructions_general","","html-button-response","7","106829","0.0-6.0","Seal","Martijn","41691","0","","","","","","<h1>Shape-Label Association Game</h1><p>In this task, you will be shown some <b>shapes</b> that will be assigned to a <b>label</b> (You, Your Best Friend and a Stranger).</p><p>To personalize this game to your own experience, you will first select who you want the friend and the stranger to be.</p>","","","","","","","","","","","","","","","","","","","",""
"","SAT_strangerlabel","","survey-multi-choice","8","110818","0.0-7.0","Seal","Martijn","3987","{""label_stranger"":""Seal""}","[0]","","","","","","","","","","","","","","","","","","","","","","","","",""
"","SAT_friendlabel","","survey-text","9","128924","0.0-8.0","Seal","Martijn","18105","{""label_friend"":""Martijn""}","","","","","","","","","","","","","","","","","","","","","","","","","",""
"","SAT_instructions_practice","","html-button-response","10","139997","0.0-9.0","Seal","Martijn","11072","0","","","","","","<h1>Practice</h1><p>Each label (i.e., You, Best Friend, Stranger) will be assigned to a specific shape (circle, square or triangle)</p><p>During the practice phase, you will be presented with one of the shapes above a fixation cross, together with the three labels below the fixation cross.</p><p>Your task is to select the label that corresponds with the presented shape as quickly and accurately as possible</p><p>If the correct label is on the <b>left</b>, press <b>'v'</b>.</p><p>If the correct label is in the <b>middle</b>, press <b>'b'</b>.</p><p>If the correct label is on the <b>right</b>, press <b>'n'</b>.</p><br>","","","","","","","","","","","","","","","","","","","",""
"","SAT_assignmentscreen","","html-button-response","11","151551","0.0-10.0","Seal","Martijn","11552","0","","","","","","<h1>Instructions</h1><div id ='align-middle'><b>You</b> will be represented by a  <b>square</b>  <img src= https://realitybending.github.io/IllusionGameSelfAssociation/experiment/SelfAssociation/stimuli/square.png height=40></img></div><br><div id ='align-middle'><b>Seal</b> will be represented by a  <b>circle</b>  <img src= https://realitybending.github.io/IllusionGameSelfAssociation/experiment/SelfAssociation/stimuli/circle.png height=40></img></div><br><div id = 'align-middle'><b>Martijn</b> will be represented by a  <b>triangle</b>  <img src= https://realitybending.github.io/IllusionGameSelfAssociation/experiment/SelfAssociation/stimuli/triangle.png height=40></img></div><br>","","","","","","","","","","","","","","","","","","","",""
"","sat_fixationcross","","html-keyboard-response","12","152064","0.0-11.0-0.0","Seal","Martijn","null","null","","","","","","<div  style='font-size:500%; position:fixed; text-align: center; top:50%; bottom:50%; right:20%; left:20%'>+</div>","500","","","","","","","","","","","","","","","","","","",""
"","sat_practicetrial","","html-keyboard-response","13","157767","0.0-11.0-1.0","Seal","Martijn","5701","b","","","","","","<div style='bottom:60%; right:20%; left:20%; position:fixed'><img src=https://realitybending.github.io/IllusionGameSelfAssociation/experiment/SelfAssociation/stimuli/circle.png height=20%></img></div><div  style='font-size:500%; position:fixed; text-align: center; top:50%; bottom:50%; right:20%; left:20%'>+</div><div style = ""font-size:300%; text-align: center; position:fixed; top:70%; left:20%""><b>You</b></br></br></br></br>v</div><div style = ""font-size:300%; text-align: center; position:fixed; top:70%; right:20%; left:20%""><b>Seal</b></br></br></br></br>b</div><div style = ""font-size:300%; text-align: center; position:fixed; top:70%; right:20%""><b>Martijn</b></br></br></br></br>n</div>","","circle","1","Seal","Seal","true","Stranger","","","","","","","","","","","","",""
"","sat_feedback","","html-keyboard-response","14","158279","0.0-11.0-2.0","Seal","Martijn","null","null","","","","","","<p style = 'font-size: 300%; color:green'>Correct!</p>","","","","","","","","","","","","","","","","","","","",""
"","sat_fixationcross","","html-keyboard-response","15","158790","0.0-11.0-0.1","Seal","Martijn","null","null","","","","","","<div  style='font-size:500%; position:fixed; text-align: center; top:50%; bottom:50%; right:20%; left:20%'>+</div>","500","","","","","","","","","","","","","","","","","","",""
"","sat_practicetrial","","html-keyboard-response","16","161543","0.0-11.0-1.1","Seal","Martijn","2752","n","","","","","","<div style='bottom:60%; right:20%; left:20%; position:fixed'><img src=https://realitybending.github.io/IllusionGameSelfAssociation/experiment/SelfAssociation/stimuli/triangle.png height=20%></img></div><div  style='font-size:500%; position:fixed; text-align: center; top:50%; bottom:50%; right:20%; left:20%'>+</div><div style = ""font-size:300%; text-align: center; position:fixed; top:70%; left:20%""><b>You</b></br></br></br></br>v</div><div style = ""font-size:300%; text-align: center; position:fixed; top:70%; right:20%; left:20%""><b>Seal</b></br></br></br></br>b</div><div style = ""font-size:300%; text-align: center; position:fixed; top:70%; right:20%""><b>Martijn</b></br></br></br></br>n</div>","","triangle","2","Martijn","Martijn","true","Friend","","","","","","","","","","","","",""
"","sat_feedback","","html-keyboard-response","17","162044","0.0-11.0-2.1","Seal","Martijn","null","null","","","","","","<p style = 'font-size: 300%; color:green'>Correct!</p>","","","","","","","","","","","","","","","","","","","",""
"","sat_fixationcross","","html-keyboard-response","18","162555","0.0-11.0-0.2","Seal","Martijn","null","null","","","","","","<div  style='font-size:500%; position:fixed; text-align: center; top:50%; bottom:50%; right:20%; left:20%'>+</div>","500","","","","","","","","","","","","","","","","","","",""
"","sat_practicetrial","","html-keyboard-response","19","163438","0.0-11.0-1.2","Seal","Martijn","882","b","","","","","","<div style='bottom:60%; right:20%; left:20%; position:fixed'><img src=https://realitybending.github.io/IllusionGameSelfAssociation/experiment/SelfAssociation/stimuli/circle.png height=20%></img></div><div  style='font-size:500%; position:fixed; text-align: center; top:50%; bottom:50%; right:20%; left:20%'>+</div><div style = ""font-size:300%; text-align: center; position:fixed; top:70%; left:20%""><b>You</b></br></br></br></br>v</div><div style = ""font-size:300%; text-align: center; position:fixed; top:70%; right:20%; left:20%""><b>Seal</b></br></br></br></br>b</div><div style = ""font-size:300%; text-align: center; position:fixed; top:70%; right:20%""><b>Martijn</b></br></br></br></br>n</div>","","circle","3","Seal","Seal","true","Stranger","","","","","","","","","","","","",""
"","sat_feedback","","html-keyboard-response","20","163949","0.0-11.0-2.2","Seal","Martijn","null","null","","","","","","<p style = 'font-size: 300%; color:green'>Correct!</p>","","","","","","","","","","","","","","","","","","","",""
"","sat_fixationcross","","html-keyboard-response","21","164463","0.0-11.0-0.3","Seal","Martijn","null","null","","","","","","<div  style='font-size:500%; position:fixed; text-align: center; top:50%; bottom:50%; right:20%; left:20%'>+</div>","500","","","","","","","","","","","","","","","","","","",""
"","sat_practicetrial","","html-keyboard-response","22","164935","0.0-11.0-1.3","Seal","Martijn","470","n","","","","","","<div style='bottom:60%; right:20%; left:20%; position:fixed'><img src=https://realitybending.github.io/IllusionGameSelfAssociation/experiment/SelfAssociation/stimuli/triangle.png height=20%></img></div><div  style='font-size:500%; position:fixed; text-align: center; top:50%; bottom:50%; right:20%; left:20%'>+</div><div style = ""font-size:300%; text-align: center; position:fixed; top:70%; left:20%""><b>You</b></br></br></br></br>v</div><div style = ""font-size:300%; text-align: center; position:fixed; top:70%; right:20%; left:20%""><b>Seal</b></br></br></br></br>b</div><div style = ""font-size:300%; text-align: center; position:fixed; top:70%; right:20%""><b>Martijn</b></br></br></br></br>n</div>","","triangle","4","Martijn","Martijn","true","Friend","","","","","","","","","","","","",""
"","sat_feedback","","html-keyboard-response","23","165442","0.0-11.0-2.3","Seal","Martijn","null","null","","","","","","<p style = 'font-size: 300%; color:green'>Correct!</p>","","","","","","","","","","","","","","","","","","","",""
"","sat_fixationcross","","html-keyboard-response","24","165952","0.0-11.0-0.4","Seal","Martijn","null","null","","","","","","<div  style='font-size:500%; position:fixed; text-align: center; top:50%; bottom:50%; right:20%; left:20%'>+</div>","500","","","","","","","","","","","","","","","","","","",""
"","sat_practicetrial","","html-keyboard-response","25","167055","0.0-11.0-1.4","Seal","Martijn","1102","n","","","","","","<div style='bottom:60%; right:20%; left:20%; position:fixed'><img src=https://realitybending.github.io/IllusionGameSelfAssociation/experiment/SelfAssociation/stimuli/triangle.png height=20%></img></div><div  style='font-size:500%; position:fixed; text-align: center; top:50%; bottom:50%; right:20%; left:20%'>+</div><div style = ""font-size:300%; text-align: center; position:fixed; top:70%; left:20%""><b>You</b></br></br></br></br>v</div><div style = ""font-size:300%; text-align: center; position:fixed; top:70%; right:20%; left:20%""><b>Seal</b></br></br></br></br>b</div><div style = ""font-size:300%; text-align: center; position:fixed; top:70%; right:20%""><b>Martijn</b></br></br></br></br>n</div>","","triangle","5","Martijn","Martijn","true","Friend","","","","","","","","","","","","",""
"","sat_feedback","","html-keyboard-response","26","167584","0.0-11.0-2.4","Seal","Martijn","null","null","","","","","","<p style = 'font-size: 300%; color:green'>Correct!</p>","","","","","","","","","","","","","","","","","","","",""
"","sat_fixationcross","","html-keyboard-response","27","168095","0.0-11.0-0.5","Seal","Martijn","null","null","","","","","","<div  style='font-size:500%; position:fixed; text-align: center; top:50%; bottom:50%; right:20%; left:20%'>+</div>","500","","","","","","","","","","","","","","","","","","",""
"","sat_practicetrial","","html-keyboard-response","28","168678","0.0-11.0-1.5","Seal","Martijn","584","n","","","","","","<div style='bottom:60%; right:20%; left:20%; position:fixed'><img src=https://realitybending.github.io/IllusionGameSelfAssociation/experiment/SelfAssociation/stimuli/triangle.png height=20%></img></div><div  style='font-size:500%; position:fixed; text-align: center; top:50%; bottom:50%; right:20%; left:20%'>+</div><div style = ""font-size:300%; text-align: center; position:fixed; top:70%; left:20%""><b>You</b></br></br></br></br>v</div><div style = ""font-size:300%; text-align: center; position:fixed; top:70%; right:20%; left:20%""><b>Seal</b></br></br></br></br>b</div><div style = ""font-size:300%; text-align: center; position:fixed; top:70%; right:20%""><b>Martijn</b></br></br></br></br>n</div>","","triangle","6","Martijn","Martijn","true","Friend","","","","","","","","","","","","",""
"","sat_feedback","","html-keyboard-response","29","169179","0.0-11.0-2.5","Seal","Martijn","null","null","","","","","","<p style = 'font-size: 300%; color:green'>Correct!</p>","","","","","","","","","","","","","","","","","","","",""
"","sat_fixationcross","","html-keyboard-response","30","169689","0.0-11.0-0.6","Seal","Martijn","null","null","","","","","","<div  style='font-size:500%; position:fixed; text-align: center; top:50%; bottom:50%; right:20%; left:20%'>+</div>","500","","","","","","","","","","","","","","","","","","",""
"","sat_practicetrial","","html-keyboard-response","31","170223","0.0-11.0-1.6","Seal","Martijn","533","v","","","","","","<div style='bottom:60%; right:20%; left:20%; position:fixed'><img src=https://realitybending.github.io/IllusionGameSelfAssociation/experiment/SelfAssociation/stimuli/square.png height=20%></img></div><div  style='font-size:500%; position:fixed; text-align: center; top:50%; bottom:50%; right:20%; left:20%'>+</div><div style = ""font-size:300%; text-align: center; position:fixed; top:70%; left:20%""><b>You</b></br></br></br></br>v</div><div style = ""font-size:300%; text-align: center; position:fixed; top:70%; right:20%; left:20%""><b>Seal</b></br></br></br></br>b</div><div style = ""font-size:300%; text-align: center; position:fixed; top:70%; right:20%""><b>Martijn</b></br></br></br></br>n</div>","","square","7","You","You","true","Self","","","","","","","","","","","","",""
"","sat_feedback","","html-keyboard-response","32","170732","0.0-11.0-2.6","Seal","Martijn","null","null","","","","","","<p style = 'font-size: 300%; color:green'>Correct!</p>","","","","","","","","","","","","","","","","","","","",""
"","sat_fixationcross","","html-keyboard-response","33","171244","0.0-11.0-0.7","Seal","Martijn","null","null","","","","","","<div  style='font-size:500%; position:fixed; text-align: center; top:50%; bottom:50%; right:20%; left:20%'>+</div>","500","","","","","","","","","","","","","","","","","","",""
"","sat_practicetrial","","html-keyboard-response","34","171870","0.0-11.0-1.7","Seal","Martijn","626","n","","","","","","<div style='bottom:60%; right:20%; left:20%; position:fixed'><img src=https://realitybending.github.io/IllusionGameSelfAssociation/experiment/SelfAssociation/stimuli/triangle.png height=20%></img></div><div  style='font-size:500%; position:fixed; text-align: center; top:50%; bottom:50%; right:20%; left:20%'>+</div><div style = ""font-size:300%; text-align: center; position:fixed; top:70%; left:20%""><b>You</b></br></br></br></br>v</div><div style = ""font-size:300%; text-align: center; position:fixed; top:70%; right:20%; left:20%""><b>Seal</b></br></br></br></br>b</div><div style = ""font-size:300%; text-align: center; position:fixed; top:70%; right:20%""><b>Martijn</b></br></br></br></br>n</div>","","triangle","8","Martijn","Martijn","true","Friend","","","","","","","","","","","","",""
"","sat_feedback","","html-keyboard-response","35","172371","0.0-11.0-2.7","Seal","Martijn","null","null","","","","","","<p style = 'font-size: 300%; color:green'>Correct!</p>","","","","","","","","","","","","","","","","","","","",""
"","sat_fixationcross","","html-keyboard-response","36","172885","0.0-11.0-0.8","Seal","Martijn","null","null","","","","","","<div  style='font-size:500%; position:fixed; text-align: center; top:50%; bottom:50%; right:20%; left:20%'>+</div>","500","","","","","","","","","","","","","","","","","","",""
"","sat_practicetrial","","html-keyboard-response","37","173639","0.0-11.0-1.8","Seal","Martijn","754","v","","","","","","<div style='bottom:60%; right:20%; left:20%; position:fixed'><img src=https://realitybending.github.io/IllusionGameSelfAssociation/experiment/SelfAssociation/stimuli/square.png height=20%></img></div><div  style='font-size:500%; position:fixed; text-align: center; top:50%; bottom:50%; right:20%; left:20%'>+</div><div style = ""font-size:300%; text-align: center; position:fixed; top:70%; left:20%""><b>You</b></br></br></br></br>v</div><div style = ""font-size:300%; text-align: center; position:fixed; top:70%; right:20%; left:20%""><b>Seal</b></br></br></br></br>b</div><div style = ""font-size:300%; text-align: center; position:fixed; top:70%; right:20%""><b>Martijn</b></br></br></br></br>n</div>","","square","9","You","You","true","Self","","","","","","","","","","","","",""
"","sat_feedback","","html-keyboard-response","38","174146","0.0-11.0-2.8","Seal","Martijn","null","null","","","","","","<p style = 'font-size: 300%; color:green'>Correct!</p>","","","","","","","","","","","","","","","","","","","",""
"","sat_fixationcross","","html-keyboard-response","39","174655","0.0-11.0-0.9","Seal","Martijn","null","null","","","","","","<div  style='font-size:500%; position:fixed; text-align: center; top:50%; bottom:50%; right:20%; left:20%'>+</div>","500","","","","","","","","","","","","","","","","","","",""
"","sat_practicetrial","","html-keyboard-response","40","175086","0.0-11.0-1.9","Seal","Martijn","431","b","","","","","","<div style='bottom:60%; right:20%; left:20%; position:fixed'><img src=https://realitybending.github.io/IllusionGameSelfAssociation/experiment/SelfAssociation/stimuli/circle.png height=20%></img></div><div  style='font-size:500%; position:fixed; text-align: center; top:50%; bottom:50%; right:20%; left:20%'>+</div><div style = ""font-size:300%; text-align: center; position:fixed; top:70%; left:20%""><b>You</b></br></br></br></br>v</div><div style = ""font-size:300%; text-align: center; position:fixed; top:70%; right:20%; left:20%""><b>Seal</b></br></br></br></br>b</div><div style = ""font-size:300%; text-align: center; position:fixed; top:70%; right:20%""><b>Martijn</b></br></br></br></br>n</div>","","circle","10","Seal","Seal","true","Stranger","","","","","","","","","","","","",""
"","sat_feedback","","html-keyboard-response","41","175596","0.0-11.0-2.9","Seal","Martijn","null","null","","","","","","<p style = 'font-size: 300%; color:green'>Correct!</p>","","","","","","","","","","","","","","","","","","","",""
"","sat_fixationcross","","html-keyboard-response","42","176157","0.0-11.0-0.10","Seal","Martijn","null","null","","","","","","<div  style='font-size:500%; position:fixed; text-align: center; top:50%; bottom:50%; right:20%; left:20%'>+</div>","500","","","","","","","","","","","","","","","","","","",""
"","sat_practicetrial","","html-keyboard-response","43","176559","0.0-11.0-1.10","Seal","Martijn","402","n","","","","","","<div style='bottom:60%; right:20%; left:20%; position:fixed'><img src=https://realitybending.github.io/IllusionGameSelfAssociation/experiment/SelfAssociation/stimuli/triangle.png height=20%></img></div><div  style='font-size:500%; position:fixed; text-align: center; top:50%; bottom:50%; right:20%; left:20%'>+</div><div style = ""font-size:300%; text-align: center; position:fixed; top:70%; left:20%""><b>You</b></br></br></br></br>v</div><div style = ""font-size:300%; text-align: center; position:fixed; top:70%; right:20%; left:20%""><b>Seal</b></br></br></br></br>b</div><div style = ""font-size:300%; text-align: center; position:fixed; top:70%; right:20%""><b>Martijn</b></br></br></br></br>n</div>","","triangle","11","Martijn","Martijn","true","Friend","","","","","","","","","","","","",""
"","sat_feedback","","html-keyboard-response","44","177070","0.0-11.0-2.10","Seal","Martijn","null","null","","","","","","<p style = 'font-size: 300%; color:green'>Correct!</p>","","","","","","","","","","","","","","","","","","","",""
"","sat_fixationcross","","html-keyboard-response","45","177584","0.0-11.0-0.11","Seal","Martijn","null","null","","","","","","<div  style='font-size:500%; position:fixed; text-align: center; top:50%; bottom:50%; right:20%; left:20%'>+</div>","500","","","","","","","","","","","","","","","","","","",""
"","sat_practicetrial","","html-keyboard-response","46","177983","0.0-11.0-1.11","Seal","Martijn","398","b","","","","","","<div style='bottom:60%; right:20%; left:20%; position:fixed'><img src=https://realitybending.github.io/IllusionGameSelfAssociation/experiment/SelfAssociation/stimuli/circle.png height=20%></img></div><div  style='font-size:500%; position:fixed; text-align: center; top:50%; bottom:50%; right:20%; left:20%'>+</div><div style = ""font-size:300%; text-align: center; position:fixed; top:70%; left:20%""><b>You</b></br></br></br></br>v</div><div style = ""font-size:300%; text-align: center; position:fixed; top:70%; right:20%; left:20%""><b>Seal</b></br></br></br></br>b</div><div style = ""font-size:300%; text-align: center; position:fixed; top:70%; right:20%""><b>Martijn</b></br></br></br></br>n</div>","","circle","12","Seal","Seal","true","Stranger","","","","","","","","","","","","",""
"","sat_feedback","","html-keyboard-response","47","178485","0.0-11.0-2.11","Seal","Martijn","null","null","","","","","","<p style = 'font-size: 300%; color:green'>Correct!</p>","","","","","","","","","","","","","","","","","","","",""
"","sat_fixationcross","","html-keyboard-response","48","178997","0.0-11.0-0.12","Seal","Martijn","null","null","","","","","","<div  style='font-size:500%; position:fixed; text-align: center; top:50%; bottom:50%; right:20%; left:20%'>+</div>","500","","","","","","","","","","","","","","","","","","",""
"","sat_practicetrial","","html-keyboard-response","49","179526","0.0-11.0-1.12","Seal","Martijn","528","n","","","","","","<div style='bottom:60%; right:20%; left:20%; position:fixed'><img src=https://realitybending.github.io/IllusionGameSelfAssociation/experiment/SelfAssociation/stimuli/triangle.png height=20%></img></div><div  style='font-size:500%; position:fixed; text-align: center; top:50%; bottom:50%; right:20%; left:20%'>+</div><div style = ""font-size:300%; text-align: center; position:fixed; top:70%; left:20%""><b>You</b></br></br></br></br>v</div><div style = ""font-size:300%; text-align: center; position:fixed; top:70%; right:20%; left:20%""><b>Seal</b></br></br></br></br>b</div><div style = ""font-size:300%; text-align: center; position:fixed; top:70%; right:20%""><b>Martijn</b></br></br></br></br>n</div>","","triangle","13","Martijn","Martijn","true","Friend","","","","","","","","","","","","",""
"","sat_feedback","","html-keyboard-response","50","180052","0.0-11.0-2.12","Seal","Martijn","null","null","","","","","","<p style = 'font-size: 300%; color:green'>Correct!</p>","","","","","","","","","","","","","","","","","","","",""
"","sat_fixationcross","","html-keyboard-response","51","180566","0.0-11.0-0.13","Seal","Martijn","null","null","","","","","","<div  style='font-size:500%; position:fixed; text-align: center; top:50%; bottom:50%; right:20%; left:20%'>+</div>","500","","","","","","","","","","","","","","","","","","",""
"","sat_practicetrial","","html-keyboard-response","52","181151","0.0-11.0-1.13","Seal","Martijn","584","v","","","","","","<div style='bottom:60%; right:20%; left:20%; position:fixed'><img src=https://realitybending.github.io/IllusionGameSelfAssociation/experiment/SelfAssociation/stimuli/square.png height=20%></img></div><div  style='font-size:500%; position:fixed; text-align: center; top:50%; bottom:50%; right:20%; left:20%'>+</div><div style = ""font-size:300%; text-align: center; position:fixed; top:70%; left:20%""><b>You</b></br></br></br></br>v</div><div style = ""font-size:300%; text-align: center; position:fixed; top:70%; right:20%; left:20%""><b>Seal</b></br></br></br></br>b</div><div style = ""font-size:300%; text-align: center; position:fixed; top:70%; right:20%""><b>Martijn</b></br></br></br></br>n</div>","","square","14","You","You","true","Self","","","","","","","","","","","","",""
"","sat_feedback","","html-keyboard-response","53","181658","0.0-11.0-2.13","Seal","Martijn","null","null","","","","","","<p style = 'font-size: 300%; color:green'>Correct!</p>","","","","","","","","","","","","","","","","","","","",""
"","sat_fixationcross","","html-keyboard-response","54","182170","0.0-11.0-0.14","Seal","Martijn","null","null","","","","","","<div  style='font-size:500%; position:fixed; text-align: center; top:50%; bottom:50%; right:20%; left:20%'>+</div>","500","","","","","","","","","","","","","","","","","","",""
"","sat_practicetrial","","html-keyboard-response","55","182823","0.0-11.0-1.14","Seal","Martijn","652","n","","","","","","<div style='bottom:60%; right:20%; left:20%; position:fixed'><img src=https://realitybending.github.io/IllusionGameSelfAssociation/experiment/SelfAssociation/stimuli/triangle.png height=20%></img></div><div  style='font-size:500%; position:fixed; text-align: center; top:50%; bottom:50%; right:20%; left:20%'>+</div><div style = ""font-size:300%; text-align: center; position:fixed; top:70%; left:20%""><b>You</b></br></br></br></br>v</div><div style = ""font-size:300%; text-align: center; position:fixed; top:70%; right:20%; left:20%""><b>Seal</b></br></br></br></br>b</div><div style = ""font-size:300%; text-align: center; position:fixed; top:70%; right:20%""><b>Martijn</b></br></br></br></br>n</div>","","triangle","15","Martijn","Martijn","true","Friend","","","","","","","","","","","","",""
"","sat_feedback","","html-keyboard-response","56","183337","0.0-11.0-2.14","Seal","Martijn","null","null","","","","","","<p style = 'font-size: 300%; color:green'>Correct!</p>","","","","","","","","","","","","","","","","","","","",""
"","sat_fixationcross","","html-keyboard-response","57","183847","0.0-11.0-0.15","Seal","Martijn","null","null","","","","","","<div  style='font-size:500%; position:fixed; text-align: center; top:50%; bottom:50%; right:20%; left:20%'>+</div>","500","","","","","","","","","","","","","","","","","","",""
"","sat_practicetrial","","html-keyboard-response","58","184183","0.0-11.0-1.15","Seal","Martijn","336","b","","","","","","<div style='bottom:60%; right:20%; left:20%; position:fixed'><img src=https://realitybending.github.io/IllusionGameSelfAssociation/experiment/SelfAssociation/stimuli/circle.png height=20%></img></div><div  style='font-size:500%; position:fixed; text-align: center; top:50%; bottom:50%; right:20%; left:20%'>+</div><div style = ""font-size:300%; text-align: center; position:fixed; top:70%; left:20%""><b>You</b></br></br></br></br>v</div><div style = ""font-size:300%; text-align: center; position:fixed; top:70%; right:20%; left:20%""><b>Seal</b></br></br></br></br>b</div><div style = ""font-size:300%; text-align: center; position:fixed; top:70%; right:20%""><b>Martijn</b></br></br></br></br>n</div>","","circle","16","Seal","Seal","true","Stranger","","","","","","","","","","","","",""
"","sat_feedback","","html-keyboard-response","59","184683","0.0-11.0-2.15","Seal","Martijn","null","null","","","","","","<p style = 'font-size: 300%; color:green'>Correct!</p>","","","","","","","","","","","","","","","","","","","",""
"","sat_fixationcross","","html-keyboard-response","60","185197","0.0-11.0-0.16","Seal","Martijn","null","null","","","","","","<div  style='font-size:500%; position:fixed; text-align: center; top:50%; bottom:50%; right:20%; left:20%'>+</div>","500","","","","","","","","","","","","","","","","","","",""
"","sat_practicetrial","","html-keyboard-response","61","185942","0.0-11.0-1.16","Seal","Martijn","747","b","","","","","","<div style='bottom:60%; right:20%; left:20%; position:fixed'><img src=https://realitybending.github.io/IllusionGameSelfAssociation/experiment/SelfAssociation/stimuli/circle.png height=20%></img></div><div  style='font-size:500%; position:fixed; text-align: center; top:50%; bottom:50%; right:20%; left:20%'>+</div><div style = ""font-size:300%; text-align: center; position:fixed; top:70%; left:20%""><b>You</b></br></br></br></br>v</div><div style = ""font-size:300%; text-align: center; position:fixed; top:70%; right:20%; left:20%""><b>Seal</b></br></br></br></br>b</div><div style = ""font-size:300%; text-align: center; position:fixed; top:70%; right:20%""><b>Martijn</b></br></br></br></br>n</div>","","circle","17","Seal","Seal","true","Stranger","","","","","","","","","","","","",""
"","sat_feedback","","html-keyboard-response","62","186453","0.0-11.0-2.16","Seal","Martijn","null","null","","","","","","<p style = 'font-size: 300%; color:green'>Correct!</p>","","","","","","","","","","","","","","","","","","","",""
"","sat_fixationcross","","html-keyboard-response","63","186967","0.0-11.0-0.17","Seal","Martijn","null","null","","","","","","<div  style='font-size:500%; position:fixed; text-align: center; top:50%; bottom:50%; right:20%; left:20%'>+</div>","500","","","","","","","","","","","","","","","","","","",""
"","sat_practicetrial","","html-keyboard-response","64","187479","0.0-11.0-1.17","Seal","Martijn","511","b","","","","","","<div style='bottom:60%; right:20%; left:20%; position:fixed'><img src=https://realitybending.github.io/IllusionGameSelfAssociation/experiment/SelfAssociation/stimuli/circle.png height=20%></img></div><div  style='font-size:500%; position:fixed; text-align: center; top:50%; bottom:50%; right:20%; left:20%'>+</div><div style = ""font-size:300%; text-align: center; position:fixed; top:70%; left:20%""><b>You</b></br></br></br></br>v</div><div style = ""font-size:300%; text-align: center; position:fixed; top:70%; right:20%; left:20%""><b>Seal</b></br></br></br></br>b</div><div style = ""font-size:300%; text-align: center; position:fixed; top:70%; right:20%""><b>Martijn</b></br></br></br></br>n</div>","","circle","18","Seal","Seal","true","Stranger","","","","","","","","","","","","",""
"","sat_feedback","","html-keyboard-response","65","187980","0.0-11.0-2.17","Seal","Martijn","null","null","","","","","","<p style = 'font-size: 300%; color:green'>Correct!</p>","","","","","","","","","","","","","","","","","","","",""
"","sat_fixationcross","","html-keyboard-response","66","188491","0.0-11.0-0.18","Seal","Martijn","null","null","","","","","","<div  style='font-size:500%; position:fixed; text-align: center; top:50%; bottom:50%; right:20%; left:20%'>+</div>","500","","","","","","","","","","","","","","","","","","",""
"","sat_practicetrial","","html-keyboard-response","67","188919","0.0-11.0-1.18","Seal","Martijn","428","b","","","","","","<div style='bottom:60%; right:20%; left:20%; position:fixed'><img src=https://realitybending.github.io/IllusionGameSelfAssociation/experiment/SelfAssociation/stimuli/circle.png height=20%></img></div><div  style='font-size:500%; position:fixed; text-align: center; top:50%; bottom:50%; right:20%; left:20%'>+</div><div style = ""font-size:300%; text-align: center; position:fixed; top:70%; left:20%""><b>You</b></br></br></br></br>v</div><div style = ""font-size:300%; text-align: center; position:fixed; top:70%; right:20%; left:20%""><b>Seal</b></br></br></br></br>b</div><div style = ""font-size:300%; text-align: center; position:fixed; top:70%; right:20%""><b>Martijn</b></br></br></br></br>n</div>","","circle","19","Seal","Seal","true","Stranger","","","","","","","","","","","","",""
"","sat_practice_end","","html-button-response","68","223320","0.0-12.0","Seal","Martijn","34400","0","","","","","","<h1>Congratulations!</h1><p>You have completed the training.</p>","","","","","","","","","","","","","","","","","","","",""
"","matching_instructions","","html-button-response","69","230775","0.0-13.0","Seal","Martijn","7453","0","","","","","","<h1>Instructions</h1><p>In this part of the game, the previous shapes will be re-assigned to the labels.</p><p>Your task will be then to decide if the presented shape matches their newly assigned label as quickly and accurately as possible.</p><p>If the shape-label pair is a <b>match</b>, press <b>'i'</b>.</p><p>If the shape-label pair is <b>not a match</b>, press <b>'e'</b></p><br><p>Good luck!</p>","","","","","","","","","","","","","","","","","","","",""
"","SAT_assignmentscreen","","html-button-response","70","240421","0.0-14.0","Seal","Martijn","9646","0","","","","","","<h1>Instructions</h1><div id ='align-middle'><b>You</b> will be represented by a  <b>circle</b>  <img src= https://realitybending.github.io/IllusionGameSelfAssociation/experiment/SelfAssociation/stimuli/circle.png height=40></img></div><br><div id ='align-middle'><b>Seal</b> will be represented by a  <b>triangle</b>  <img src= https://realitybending.github.io/IllusionGameSelfAssociation/experiment/SelfAssociation/stimuli/triangle.png height=40></img></div><br><div id = 'align-middle'><b>Martijn</b> will be represented by a  <b>square</b>  <img src= https://realitybending.github.io/IllusionGameSelfAssociation/experiment/SelfAssociation/stimuli/square.png height=40></img></div><br>","","","","","","","","","","","","","","","","","","","",""
"","sat_fixationcross","","html-keyboard-response","71","240988","0.0-15.0-0.0","Seal","Martijn","null","null","","","","","","<div  style='font-size:500%; position:fixed; text-align: center; top:50%; bottom:50%; right:20%; left:20%'>+</div>","500","","","","","","","","","","","","","","","","","","",""
"","sat_trial","","html-keyboard-response","72","242543","0.0-15.0-1.0","Seal","Martijn","1554","i","","","","","","<div style='bottom:60%; right:20%; left:20%; position:fixed'><img src=https://realitybending.github.io/IllusionGameSelfAssociation/experiment/SelfAssociation/stimuli/square.png height=20%></img></div><div  style='font-size:500%; position:fixed; text-align: center; top:50%; bottom:50%; right:20%; left:20%'>+</div><div style = ""font-size:300%; text-align: center; position:fixed; top:70%; right:20%; left:20%""><b>Martijn</div>","","square","1","match","match","true","","Friend","1","","","","","","","","","","",""
"","sat_feedback","","html-keyboard-response","73","243056","0.0-15.0-2.0","Seal","Martijn","null","null","","","","","","<p style = 'font-size: 300%; color:green'>Correct!</p>","","","","","","","","","","","","","","","","","","","",""
"","sat_fixationcross","","html-keyboard-response","74","243568","0.0-15.0-0.1","Seal","Martijn","null","null","","","","","","<div  style='font-size:500%; position:fixed; text-align: center; top:50%; bottom:50%; right:20%; left:20%'>+</div>","500","","","","","","","","","","","","","","","","","","",""
"","sat_trial","","html-keyboard-response","75","244560","0.0-15.0-1.1","Seal","Martijn","991","i","","","","","","<div style='bottom:60%; right:20%; left:20%; position:fixed'><img src=https://realitybending.github.io/IllusionGameSelfAssociation/experiment/SelfAssociation/stimuli/circle.png height=20%></img></div><div  style='font-size:500%; position:fixed; text-align: center; top:50%; bottom:50%; right:20%; left:20%'>+</div><div style = ""font-size:300%; text-align: center; position:fixed; top:70%; right:20%; left:20%""><b>Martijn</div>","","circle","2","match","mismatch","false","","Friend","1","","","","","","","","","","",""
"","sat_feedback","","html-keyboard-response","76","245060","0.0-15.0-2.1","Seal","Martijn","null","null","","","","","","<p style = 'font-size: 300%; color:red'>Incorrect!</p>","","","","","","","","","","","","","","","","","","","",""
"","sat_fixationcross","","html-keyboard-response","77","245570","0.0-15.0-0.2","Seal","Martijn","null","null","","","","","","<div  style='font-size:500%; position:fixed; text-align: center; top:50%; bottom:50%; right:20%; left:20%'>+</div>","500","","","","","","","","","","","","","","","","","","",""
"","sat_trial","","html-keyboard-response","78","246999","0.0-15.0-1.2","Seal","Martijn","1429","e","","","","","","<div style='bottom:60%; right:20%; left:20%; position:fixed'><img src=https://realitybending.github.io/IllusionGameSelfAssociation/experiment/SelfAssociation/stimuli/square.png height=20%></img></div><div  style='font-size:500%; position:fixed; text-align: center; top:50%; bottom:50%; right:20%; left:20%'>+</div><div style = ""font-size:300%; text-align: center; position:fixed; top:70%; right:20%; left:20%""><b>Seal</div>","","square","3","mismatch","mismatch","true","","Stranger","1","","","","","","","","","","",""
"","sat_feedback","","html-keyboard-response","79","247506","0.0-15.0-2.2","Seal","Martijn","null","null","","","","","","<p style = 'font-size: 300%; color:green'>Correct!</p>","","","","","","","","","","","","","","","","","","","",""
"","sat_fixationcross","","html-keyboard-response","80","248067","0.0-15.0-0.3","Seal","Martijn","null","null","","","","","","<div  style='font-size:500%; position:fixed; text-align: center; top:50%; bottom:50%; right:20%; left:20%'>+</div>","500","","","","","","","","","","","","","","","","","","",""
"","sat_trial","","html-keyboard-response","81","248943","0.0-15.0-1.3","Seal","Martijn","875","i","","","","","","<div style='bottom:60%; right:20%; left:20%; position:fixed'><img src=https://realitybending.github.io/IllusionGameSelfAssociation/experiment/SelfAssociation/stimuli/circle.png height=20%></img></div><div  style='font-size:500%; position:fixed; text-align: center; top:50%; bottom:50%; right:20%; left:20%'>+</div><div style = ""font-size:300%; text-align: center; position:fixed; top:70%; right:20%; left:20%""><b>Martijn</div>","","circle","4","match","mismatch","false","","Friend","1","","","","","","","","","","",""
"","sat_feedback","","html-keyboard-response","82","249448","0.0-15.0-2.3","Seal","Martijn","null","null","","","","","","<p style = 'font-size: 300%; color:red'>Incorrect!</p>","","","","","","","","","","","","","","","","","","","",""
"","sat_fixationcross","","html-keyboard-response","83","249958","0.0-15.0-0.4","Seal","Martijn","null","null","","","","","","<div  style='font-size:500%; position:fixed; text-align: center; top:50%; bottom:50%; right:20%; left:20%'>+</div>","500","","","","","","","","","","","","","","","","","","",""
"","sat_trial","","html-keyboard-response","84","250911","0.0-15.0-1.4","Seal","Martijn","953","i","","","","","","<div style='bottom:60%; right:20%; left:20%; position:fixed'><img src=https://realitybending.github.io/IllusionGameSelfAssociation/experiment/SelfAssociation/stimuli/triangle.png height=20%></img></div><div  style='font-size:500%; position:fixed; text-align: center; top:50%; bottom:50%; right:20%; left:20%'>+</div><div style = ""font-size:300%; text-align: center; position:fixed; top:70%; right:20%; left:20%""><b>You</div>","","triangle","5","match","mismatch","false","","Self","1","","","","","","","","","","",""
"","sat_feedback","","html-keyboard-response","85","251419","0.0-15.0-2.4","Seal","Martijn","null","null","","","","","","<p style = 'font-size: 300%; color:red'>Incorrect!</p>","","","","","","","","","","","","","","","","","","","",""
"","sat_fixationcross","","html-keyboard-response","86","251931","0.0-15.0-0.5","Seal","Martijn","null","null","","","","","","<div  style='font-size:500%; position:fixed; text-align: center; top:50%; bottom:50%; right:20%; left:20%'>+</div>","500","","","","","","","","","","","","","","","","","","",""
"","sat_trial","","html-keyboard-response","87","253047","0.0-15.0-1.5","Seal","Martijn","1115","i","","","","","","<div style='bottom:60%; right:20%; left:20%; position:fixed'><img src=https://realitybending.github.io/IllusionGameSelfAssociation/experiment/SelfAssociation/stimuli/circle.png height=20%></img></div><div  style='font-size:500%; position:fixed; text-align: center; top:50%; bottom:50%; right:20%; left:20%'>+</div><div style = ""font-size:300%; text-align: center; position:fixed; top:70%; right:20%; left:20%""><b>Seal</div>","","circle","6","match","mismatch","false","","Stranger","1","","","","","","","","","","",""
"","sat_feedback","","html-keyboard-response","88","253548","0.0-15.0-2.5","Seal","Martijn","null","null","","","","","","<p style = 'font-size: 300%; color:red'>Incorrect!</p>","","","","","","","","","","","","","","","","","","","",""
"","sat_fixationcross","","html-keyboard-response","89","254058","0.0-15.0-0.6","Seal","Martijn","null","null","","","","","","<div  style='font-size:500%; position:fixed; text-align: center; top:50%; bottom:50%; right:20%; left:20%'>+</div>","500","","","","","","","","","","","","","","","","","","",""
"","sat_trial","","html-keyboard-response","90","254895","0.0-15.0-1.6","Seal","Martijn","837","e","","","","","","<div style='bottom:60%; right:20%; left:20%; position:fixed'><img src=https://realitybending.github.io/IllusionGameSelfAssociation/experiment/SelfAssociation/stimuli/circle.png height=20%></img></div><div  style='font-size:500%; position:fixed; text-align: center; top:50%; bottom:50%; right:20%; left:20%'>+</div><div style = ""font-size:300%; text-align: center; position:fixed; top:70%; right:20%; left:20%""><b>Seal</div>","","circle","7","mismatch","mismatch","true","","Stranger","1","","","","","","","","","","",""
"","sat_feedback","","html-keyboard-response","91","255408","0.0-15.0-2.6","Seal","Martijn","null","null","","","","","","<p style = 'font-size: 300%; color:green'>Correct!</p>","","","","","","","","","","","","","","","","","","","",""
"","sat_fixationcross","","html-keyboard-response","92","255908","0.0-15.0-0.7","Seal","Martijn","null","null","","","","","","<div  style='font-size:500%; position:fixed; text-align: center; top:50%; bottom:50%; right:20%; left:20%'>+</div>","500","","","","","","","","","","","","","","","","","","",""
"","sat_trial","","html-keyboard-response","93","256847","0.0-15.0-1.7","Seal","Martijn","939","e","","","","","","<div style='bottom:60%; right:20%; left:20%; position:fixed'><img src=https://realitybending.github.io/IllusionGameSelfAssociation/experiment/SelfAssociation/stimuli/circle.png height=20%></img></div><div  style='font-size:500%; position:fixed; text-align: center; top:50%; bottom:50%; right:20%; left:20%'>+</div><div style = ""font-size:300%; text-align: center; position:fixed; top:70%; right:20%; left:20%""><b>Martijn</div>","","circle","8","mismatch","mismatch","true","","Friend","1","","","","","","","","","","",""
"","sat_feedback","","html-keyboard-response","94","257410","0.0-15.0-2.7","Seal","Martijn","null","null","","","","","","<p style = 'font-size: 300%; color:green'>Correct!</p>","","","","","","","","","","","","","","","","","","","",""
"","sat_fixationcross","","html-keyboard-response","95","257924","0.0-15.0-0.8","Seal","Martijn","null","null","","","","","","<div  style='font-size:500%; position:fixed; text-align: center; top:50%; bottom:50%; right:20%; left:20%'>+</div>","500","","","","","","","","","","","","","","","","","","",""
"","sat_trial","","html-keyboard-response","96","258839","0.0-15.0-1.8","Seal","Martijn","915","e","","","","","","<div style='bottom:60%; right:20%; left:20%; position:fixed'><img src=https://realitybending.github.io/IllusionGameSelfAssociation/experiment/SelfAssociation/stimuli/triangle.png height=20%></img></div><div  style='font-size:500%; position:fixed; text-align: center; top:50%; bottom:50%; right:20%; left:20%'>+</div><div style = ""font-size:300%; text-align: center; position:fixed; top:70%; right:20%; left:20%""><b>You</div>","","triangle","9","mismatch","mismatch","true","","Self","1","","","","","","","","","","",""
"","sat_feedback","","html-keyboard-response","97","259350","0.0-15.0-2.8","Seal","Martijn","null","null","","","","","","<p style = 'font-size: 300%; color:green'>Correct!</p>","","","","","","","","","","","","","","","","","","","",""
"","sat_fixationcross","","html-keyboard-response","98","259864","0.0-15.0-0.9","Seal","Martijn","null","null","","","","","","<div  style='font-size:500%; position:fixed; text-align: center; top:50%; bottom:50%; right:20%; left:20%'>+</div>","500","","","","","","","","","","","","","","","","","","",""
"","sat_trial","","html-keyboard-response","99","260791","0.0-15.0-1.9","Seal","Martijn","926","i","","","","","","<div style='bottom:60%; right:20%; left:20%; position:fixed'><img src=https://realitybending.github.io/IllusionGameSelfAssociation/experiment/SelfAssociation/stimuli/circle.png height=20%></img></div><div  style='font-size:500%; position:fixed; text-align: center; top:50%; bottom:50%; right:20%; left:20%'>+</div><div style = ""font-size:300%; text-align: center; position:fixed; top:70%; right:20%; left:20%""><b>You</div>","","circle","10","match","match","true","","Self","1","","","","","","","","","","",""
"","sat_feedback","","html-keyboard-response","100","261296","0.0-15.0-2.9","Seal","Martijn","null","null","","","","","","<p style = 'font-size: 300%; color:green'>Correct!</p>","","","","","","","","","","","","","","","","","","","",""
"","sat_fixationcross","","html-keyboard-response","101","261810","0.0-15.0-0.10","Seal","Martijn","null","null","","","","","","<div  style='font-size:500%; position:fixed; text-align: center; top:50%; bottom:50%; right:20%; left:20%'>+</div>","500","","","","","","","","","","","","","","","","","","",""
"","sat_trial","","html-keyboard-response","102","262607","0.0-15.0-1.10","Seal","Martijn","797","e","","","","","","<div style='bottom:60%; right:20%; left:20%; position:fixed'><img src=https://realitybending.github.io/IllusionGameSelfAssociation/experiment/SelfAssociation/stimuli/square.png height=20%></img></div><div  style='font-size:500%; position:fixed; text-align: center; top:50%; bottom:50%; right:20%; left:20%'>+</div><div style = ""font-size:300%; text-align: center; position:fixed; top:70%; right:20%; left:20%""><b>Martijn</div>","","square","11","mismatch","match","false","","Friend","1","","","","","","","","","","",""
"","sat_feedback","","html-keyboard-response","103","263113","0.0-15.0-2.10","Seal","Martijn","null","null","","","","","","<p style = 'font-size: 300%; color:red'>Incorrect!</p>","","","","","","","","","","","","","","","","","","","",""
"","sat_fixationcross","","html-keyboard-response","104","263620","0.0-15.0-0.11","Seal","Martijn","null","null","","","","","","<div  style='font-size:500%; position:fixed; text-align: center; top:50%; bottom:50%; right:20%; left:20%'>+</div>","500","","","","","","","","","","","","","","","","","","",""
"","sat_trial","","html-keyboard-response","105","264583","0.0-15.0-1.11","Seal","Martijn","962","e","","","","","","<div style='bottom:60%; right:20%; left:20%; position:fixed'><img src=https://realitybending.github.io/IllusionGameSelfAssociation/experiment/SelfAssociation/stimuli/square.png height=20%></img></div><div  style='font-size:500%; position:fixed; text-align: center; top:50%; bottom:50%; right:20%; left:20%'>+</div><div style = ""font-size:300%; text-align: center; position:fixed; top:70%; right:20%; left:20%""><b>You</div>","","square","12","mismatch","mismatch","true","","Self","1","","","","","","","","","","",""
"","sat_feedback","","html-keyboard-response","106","265120","0.0-15.0-2.11","Seal","Martijn","null","null","","","","","","<p style = 'font-size: 300%; color:green'>Correct!</p>","","","","","","","","","","","","","","","","","","","",""
"","sat_fixationcross","","html-keyboard-response","107","265631","0.0-15.0-0.12","Seal","Martijn","null","null","","","","","","<div  style='font-size:500%; position:fixed; text-align: center; top:50%; bottom:50%; right:20%; left:20%'>+</div>","500","","","","","","","","","","","","","","","","","","",""
"","sat_trial","","html-keyboard-response","108","266616","0.0-15.0-1.12","Seal","Martijn","984","e","","","","","","<div style='bottom:60%; right:20%; left:20%; position:fixed'><img src=https://realitybending.github.io/IllusionGameSelfAssociation/experiment/SelfAssociation/stimuli/square.png height=20%></img></div><div  style='font-size:500%; position:fixed; text-align: center; top:50%; bottom:50%; right:20%; left:20%'>+</div><div style = ""font-size:300%; text-align: center; position:fixed; top:70%; right:20%; left:20%""><b>You</div>","","square","13","mismatch","mismatch","true","","Self","1","","","","","","","","","","",""
"","sat_feedback","","html-keyboard-response","109","267120","0.0-15.0-2.12","Seal","Martijn","null","null","","","","","","<p style = 'font-size: 300%; color:green'>Correct!</p>","","","","","","","","","","","","","","","","","","","",""
"","sat_fixationcross","","html-keyboard-response","110","267644","0.0-15.0-0.13","Seal","Martijn","null","null","","","","","","<div  style='font-size:500%; position:fixed; text-align: center; top:50%; bottom:50%; right:20%; left:20%'>+</div>","500","","","","","","","","","","","","","","","","","","",""
"","sat_trial","","html-keyboard-response","111","268359","0.0-15.0-1.13","Seal","Martijn","715","e","","","","","","<div style='bottom:60%; right:20%; left:20%; position:fixed'><img src=https://realitybending.github.io/IllusionGameSelfAssociation/experiment/SelfAssociation/stimuli/square.png height=20%></img></div><div  style='font-size:500%; position:fixed; text-align: center; top:50%; bottom:50%; right:20%; left:20%'>+</div><div style = ""font-size:300%; text-align: center; position:fixed; top:70%; right:20%; left:20%""><b>You</div>","","square","14","mismatch","mismatch","true","","Self","1","","","","","","","","","","",""
"","sat_feedback","","html-keyboard-response","112","268865","0.0-15.0-2.13","Seal","Martijn","null","null","","","","","","<p style = 'font-size: 300%; color:green'>Correct!</p>","","","","","","","","","","","","","","","","","","","",""
"","sat_fixationcross","","html-keyboard-response","113","269376","0.0-15.0-0.14","Seal","Martijn","null","null","","","","","","<div  style='font-size:500%; position:fixed; text-align: center; top:50%; bottom:50%; right:20%; left:20%'>+</div>","500","","","","","","","","","","","","","","","","","","",""
"","sat_trial","","html-keyboard-response","114","270239","0.0-15.0-1.14","Seal","Martijn","862","i","","","","","","<div style='bottom:60%; right:20%; left:20%; position:fixed'><img src=https://realitybending.github.io/IllusionGameSelfAssociation/experiment/SelfAssociation/stimuli/square.png height=20%></img></div><div  style='font-size:500%; position:fixed; text-align: center; top:50%; bottom:50%; right:20%; left:20%'>+</div><div style = ""font-size:300%; text-align: center; position:fixed; top:70%; right:20%; left:20%""><b>Seal</div>","","square","15","match","mismatch","false","","Stranger","1","","","","","","","","","","",""
"","sat_feedback","","html-keyboard-response","115","270754","0.0-15.0-2.14","Seal","Martijn","null","null","","","","","","<p style = 'font-size: 300%; color:red'>Incorrect!</p>","","","","","","","","","","","","","","","","","","","",""
"","sat_fixationcross","","html-keyboard-response","116","271267","0.0-15.0-0.15","Seal","Martijn","null","null","","","","","","<div  style='font-size:500%; position:fixed; text-align: center; top:50%; bottom:50%; right:20%; left:20%'>+</div>","500","","","","","","","","","","","","","","","","","","",""
"","sat_trial","","html-keyboard-response","117","272272","0.0-15.0-1.15","Seal","Martijn","1004","e","","","","","","<div style='bottom:60%; right:20%; left:20%; position:fixed'><img src=https://realitybending.github.io/IllusionGameSelfAssociation/experiment/SelfAssociation/stimuli/triangle.png height=20%></img></div><div  style='font-size:500%; position:fixed; text-align: center; top:50%; bottom:50%; right:20%; left:20%'>+</div><div style = ""font-size:300%; text-align: center; position:fixed; top:70%; right:20%; left:20%""><b>Martijn</div>","","triangle","16","mismatch","mismatch","true","","Friend","1","","","","","","","","","","",""
"","sat_feedback","","html-keyboard-response","118","272772","0.0-15.0-2.15","Seal","Martijn","null","null","","","","","","<p style = 'font-size: 300%; color:green'>Correct!</p>","","","","","","","","","","","","","","","","","","","",""
"","sat_fixationcross","","html-keyboard-response","119","273286","0.0-15.0-0.16","Seal","Martijn","null","null","","","","","","<div  style='font-size:500%; position:fixed; text-align: center; top:50%; bottom:50%; right:20%; left:20%'>+</div>","500","","","","","","","","","","","","","","","","","","",""
"","sat_trial","","html-keyboard-response","120","274384","0.0-15.0-1.16","Seal","Martijn","1098","e","","","","","","<div style='bottom:60%; right:20%; left:20%; position:fixed'><img src=https://realitybending.github.io/IllusionGameSelfAssociation/experiment/SelfAssociation/stimuli/square.png height=20%></img></div><div  style='font-size:500%; position:fixed; text-align: center; top:50%; bottom:50%; right:20%; left:20%'>+</div><div style = ""font-size:300%; text-align: center; position:fixed; top:70%; right:20%; left:20%""><b>You</div>","","square","17","mismatch","mismatch","true","","Self","1","","","","","","","","","","",""
"","sat_feedback","","html-keyboard-response","121","274888","0.0-15.0-2.16","Seal","Martijn","null","null","","","","","","<p style = 'font-size: 300%; color:green'>Correct!</p>","","","","","","","","","","","","","","","","","","","",""
"","sat_fixationcross","","html-keyboard-response","122","275403","0.0-15.0-0.17","Seal","Martijn","null","null","","","","","","<div  style='font-size:500%; position:fixed; text-align: center; top:50%; bottom:50%; right:20%; left:20%'>+</div>","500","","","","","","","","","","","","","","","","","","",""
"","sat_trial","","html-keyboard-response","123","276447","0.0-15.0-1.17","Seal","Martijn","1044","e","","","","","","<div style='bottom:60%; right:20%; left:20%; position:fixed'><img src=https://realitybending.github.io/IllusionGameSelfAssociation/experiment/SelfAssociation/stimuli/circle.png height=20%></img></div><div  style='font-size:500%; position:fixed; text-align: center; top:50%; bottom:50%; right:20%; left:20%'>+</div><div style = ""font-size:300%; text-align: center; position:fixed; top:70%; right:20%; left:20%""><b>Seal</div>","","circle","18","mismatch","mismatch","true","","Stranger","1","","","","","","","","","","",""
"","sat_feedback","","html-keyboard-response","124","276950","0.0-15.0-2.17","Seal","Martijn","null","null","","","","","","<p style = 'font-size: 300%; color:green'>Correct!</p>","","","","","","","","","","","","","","","","","","","",""
"","sat_fixationcross","","html-keyboard-response","125","277459","0.0-15.0-0.18","Seal","Martijn","null","null","","","","","","<div  style='font-size:500%; position:fixed; text-align: center; top:50%; bottom:50%; right:20%; left:20%'>+</div>","500","","","","","","","","","","","","","","","","","","",""
"","sat_trial","","html-keyboard-response","126","278392","0.0-15.0-1.18","Seal","Martijn","933","e","","","","","","<div style='bottom:60%; right:20%; left:20%; position:fixed'><img src=https://realitybending.github.io/IllusionGameSelfAssociation/experiment/SelfAssociation/stimuli/circle.png height=20%></img></div><div  style='font-size:500%; position:fixed; text-align: center; top:50%; bottom:50%; right:20%; left:20%'>+</div><div style = ""font-size:300%; text-align: center; position:fixed; top:70%; right:20%; left:20%""><b>Martijn</div>","","circle","19","mismatch","mismatch","true","","Friend","1","","","","","","","","","","",""
"","sat_feedback","","html-keyboard-response","127","278900","0.0-15.0-2.18","Seal","Martijn","null","null","","","","","","<p style = 'font-size: 300%; color:green'>Correct!</p>","","","","","","","","","","","","","","","","","","","",""
"","sat_fixationcross","","html-keyboard-response","128","279413","0.0-15.0-0.19","Seal","Martijn","null","null","","","","","","<div  style='font-size:500%; position:fixed; text-align: center; top:50%; bottom:50%; right:20%; left:20%'>+</div>","500","","","","","","","","","","","","","","","","","","",""
"","sat_trial","","html-keyboard-response","129","280119","0.0-15.0-1.19","Seal","Martijn","706","i","","","","","","<div style='bottom:60%; right:20%; left:20%; position:fixed'><img src=https://realitybending.github.io/IllusionGameSelfAssociation/experiment/SelfAssociation/stimuli/square.png height=20%></img></div><div  style='font-size:500%; position:fixed; text-align: center; top:50%; bottom:50%; right:20%; left:20%'>+</div><div style = ""font-size:300%; text-align: center; position:fixed; top:70%; right:20%; left:20%""><b>Martijn</div>","","square","20","match","match","true","","Friend","1","","","","","","","","","","",""
"","sat_feedback","","html-keyboard-response","130","280625","0.0-15.0-2.19","Seal","Martijn","null","null","","","","","","<p style = 'font-size: 300%; color:green'>Correct!</p>","","","","","","","","","","","","","","","","","","","",""
"","sat_fixationcross","","html-keyboard-response","131","281138","0.0-15.0-0.20","Seal","Martijn","null","null","","","","","","<div  style='font-size:500%; position:fixed; text-align: center; top:50%; bottom:50%; right:20%; left:20%'>+</div>","500","","","","","","","","","","","","","","","","","","",""
"","sat_trial","","html-keyboard-response","132","282192","0.0-15.0-1.20","Seal","Martijn","1053","i","","","","","","<div style='bottom:60%; right:20%; left:20%; position:fixed'><img src=https://realitybending.github.io/IllusionGameSelfAssociation/experiment/SelfAssociation/stimuli/square.png height=20%></img></div><div  style='font-size:500%; position:fixed; text-align: center; top:50%; bottom:50%; right:20%; left:20%'>+</div><div style = ""font-size:300%; text-align: center; position:fixed; top:70%; right:20%; left:20%""><b>Martijn</div>","","square","21","match","match","true","","Friend","1","","","","","","","","","","",""
"","sat_feedback","","html-keyboard-response","133","282700","0.0-15.0-2.20","Seal","Martijn","null","null","","","","","","<p style = 'font-size: 300%; color:green'>Correct!</p>","","","","","","","","","","","","","","","","","","","",""
"","sat_fixationcross","","html-keyboard-response","134","283214","0.0-15.0-0.21","Seal","Martijn","null","null","","","","","","<div  style='font-size:500%; position:fixed; text-align: center; top:50%; bottom:50%; right:20%; left:20%'>+</div>","500","","","","","","","","","","","","","","","","","","",""
"","sat_trial","","html-keyboard-response","135","284239","0.0-15.0-1.21","Seal","Martijn","1025","e","","","","","","<div style='bottom:60%; right:20%; left:20%; position:fixed'><img src=https://realitybending.github.io/IllusionGameSelfAssociation/experiment/SelfAssociation/stimuli/square.png height=20%></img></div><div  style='font-size:500%; position:fixed; text-align: center; top:50%; bottom:50%; right:20%; left:20%'>+</div><div style = ""font-size:300%; text-align: center; position:fixed; top:70%; right:20%; left:20%""><b>Seal</div>","","square","22","mismatch","mismatch","true","","Stranger","1","","","","","","","","","","",""
"","sat_feedback","","html-keyboard-response","136","284748","0.0-15.0-2.21","Seal","Martijn","null","null","","","","","","<p style = 'font-size: 300%; color:green'>Correct!</p>","","","","","","","","","","","","","","","","","","","",""
"","sat_fixationcross","","html-keyboard-response","137","285258","0.0-15.0-0.22","Seal","Martijn","null","null","","","","","","<div  style='font-size:500%; position:fixed; text-align: center; top:50%; bottom:50%; right:20%; left:20%'>+</div>","500","","","","","","","","","","","","","","","","","","",""
"","sat_trial","","html-keyboard-response","138","286063","0.0-15.0-1.22","Seal","Martijn","804","i","","","","","","<div style='bottom:60%; right:20%; left:20%; position:fixed'><img src=https://realitybending.github.io/IllusionGameSelfAssociation/experiment/SelfAssociation/stimuli/triangle.png height=20%></img></div><div  style='font-size:500%; position:fixed; text-align: center; top:50%; bottom:50%; right:20%; left:20%'>+</div><div style = ""font-size:300%; text-align: center; position:fixed; top:70%; right:20%; left:20%""><b>Martijn</div>","","triangle","23","match","mismatch","false","","Friend","1","","","","","","","","","","",""
"","sat_feedback","","html-keyboard-response","139","286577","0.0-15.0-2.22","Seal","Martijn","null","null","","","","","","<p style = 'font-size: 300%; color:red'>Incorrect!</p>","","","","","","","","","","","","","","","","","","","",""
"","sat_fixationcross","","html-keyboard-response","140","287085","0.0-15.0-0.23","Seal","Martijn","null","null","","","","","","<div  style='font-size:500%; position:fixed; text-align: center; top:50%; bottom:50%; right:20%; left:20%'>+</div>","500","","","","","","","","","","","","","","","","","","",""
"","sat_trial","","html-keyboard-response","141","287872","0.0-15.0-1.23","Seal","Martijn","786","e","","","","","","<div style='bottom:60%; right:20%; left:20%; position:fixed'><img src=https://realitybending.github.io/IllusionGameSelfAssociation/experiment/SelfAssociation/stimuli/triangle.png height=20%></img></div><div  style='font-size:500%; position:fixed; text-align: center; top:50%; bottom:50%; right:20%; left:20%'>+</div><div style = ""font-size:300%; text-align: center; position:fixed; top:70%; right:20%; left:20%""><b>You</div>","","triangle","24","mismatch","mismatch","true","","Self","1","","","","","","","","","","",""
"","sat_feedback","","html-keyboard-response","142","288387","0.0-15.0-2.23","Seal","Martijn","null","null","","","","","","<p style = 'font-size: 300%; color:green'>Correct!</p>","","","","","","","","","","","","","","","","","","","",""
"","sat_fixationcross","","html-keyboard-response","143","288895","0.0-15.0-0.24","Seal","Martijn","null","null","","","","","","<div  style='font-size:500%; position:fixed; text-align: center; top:50%; bottom:50%; right:20%; left:20%'>+</div>","500","","","","","","","","","","","","","","","","","","",""
"","sat_trial","","html-keyboard-response","144","289736","0.0-15.0-1.24","Seal","Martijn","839","i","","","","","","<div style='bottom:60%; right:20%; left:20%; position:fixed'><img src=https://realitybending.github.io/IllusionGameSelfAssociation/experiment/SelfAssociation/stimuli/square.png height=20%></img></div><div  style='font-size:500%; position:fixed; text-align: center; top:50%; bottom:50%; right:20%; left:20%'>+</div><div style = ""font-size:300%; text-align: center; position:fixed; top:70%; right:20%; left:20%""><b>Martijn</div>","","square","25","match","match","true","","Friend","1","","","","","","","","","","",""
"","sat_feedback","","html-keyboard-response","145","290245","0.0-15.0-2.24","Seal","Martijn","null","null","","","","","","<p style = 'font-size: 300%; color:green'>Correct!</p>","","","","","","","","","","","","","","","","","","","",""
"","sat_fixationcross","","html-keyboard-response","146","290757","0.0-15.0-0.25","Seal","Martijn","null","null","","","","","","<div  style='font-size:500%; position:fixed; text-align: center; top:50%; bottom:50%; right:20%; left:20%'>+</div>","500","","","","","","","","","","","","","","","","","","",""
"","sat_trial","","html-keyboard-response","147","291752","0.0-15.0-1.25","Seal","Martijn","994","e","","","","","","<div style='bottom:60%; right:20%; left:20%; position:fixed'><img src=https://realitybending.github.io/IllusionGameSelfAssociation/experiment/SelfAssociation/stimuli/triangle.png height=20%></img></div><div  style='font-size:500%; position:fixed; text-align: center; top:50%; bottom:50%; right:20%; left:20%'>+</div><div style = ""font-size:300%; text-align: center; position:fixed; top:70%; right:20%; left:20%""><b>You</div>","","triangle","26","mismatch","mismatch","true","","Self","1","","","","","","","","","","",""
"","sat_feedback","","html-keyboard-response","148","292259","0.0-15.0-2.25","Seal","Martijn","null","null","","","","","","<p style = 'font-size: 300%; color:green'>Correct!</p>","","","","","","","","","","","","","","","","","","","",""
"","sat_fixationcross","","html-keyboard-response","149","292768","0.0-15.0-0.26","Seal","Martijn","null","null","","","","","","<div  style='font-size:500%; position:fixed; text-align: center; top:50%; bottom:50%; right:20%; left:20%'>+</div>","500","","","","","","","","","","","","","","","","","","",""
"","sat_trial","","html-keyboard-response","150","293783","0.0-15.0-1.26","Seal","Martijn","1016","e","","","","","","<div style='bottom:60%; right:20%; left:20%; position:fixed'><img src=https://realitybending.github.io/IllusionGameSelfAssociation/experiment/SelfAssociation/stimuli/circle.png height=20%></img></div><div  style='font-size:500%; position:fixed; text-align: center; top:50%; bottom:50%; right:20%; left:20%'>+</div><div style = ""font-size:300%; text-align: center; position:fixed; top:70%; right:20%; left:20%""><b>Martijn</div>","","circle","27","mismatch","mismatch","true","","Friend","1","","","","","","","","","","",""
"","sat_feedback","","html-keyboard-response","151","294286","0.0-15.0-2.26","Seal","Martijn","null","null","","","","","","<p style = 'font-size: 300%; color:green'>Correct!</p>","","","","","","","","","","","","","","","","","","","",""
"","sat_fixationcross","","html-keyboard-response","152","294800","0.0-15.0-0.27","Seal","Martijn","null","null","","","","","","<div  style='font-size:500%; position:fixed; text-align: center; top:50%; bottom:50%; right:20%; left:20%'>+</div>","500","","","","","","","","","","","","","","","","","","",""
"","sat_trial","","html-keyboard-response","153","295872","0.0-15.0-1.27","Seal","Martijn","1071","e","","","","","","<div style='bottom:60%; right:20%; left:20%; position:fixed'><img src=https://realitybending.github.io/IllusionGameSelfAssociation/experiment/SelfAssociation/stimuli/triangle.png height=20%></img></div><div  style='font-size:500%; position:fixed; text-align: center; top:50%; bottom:50%; right:20%; left:20%'>+</div><div style = ""font-size:300%; text-align: center; position:fixed; top:70%; right:20%; left:20%""><b>Martijn</div>","","triangle","28","mismatch","mismatch","true","","Friend","1","","","","","","","","","","",""
"","sat_feedback","","html-keyboard-response","154","296384","0.0-15.0-2.27","Seal","Martijn","null","null","","","","","","<p style = 'font-size: 300%; color:green'>Correct!</p>","","","","","","","","","","","","","","","","","","","",""
"","sat_fixationcross","","html-keyboard-response","155","296896","0.0-15.0-0.28","Seal","Martijn","null","null","","","","","","<div  style='font-size:500%; position:fixed; text-align: center; top:50%; bottom:50%; right:20%; left:20%'>+</div>","500","","","","","","","","","","","","","","","","","","",""
"","sat_trial","","html-keyboard-response","156","297487","0.0-15.0-1.28","Seal","Martijn","592","e","","","","","","<div style='bottom:60%; right:20%; left:20%; position:fixed'><img src=https://realitybending.github.io/IllusionGameSelfAssociation/experiment/SelfAssociation/stimuli/triangle.png height=20%></img></div><div  style='font-size:500%; position:fixed; text-align: center; top:50%; bottom:50%; right:20%; left:20%'>+</div><div style = ""font-size:300%; text-align: center; position:fixed; top:70%; right:20%; left:20%""><b>Martijn</div>","","triangle","29","mismatch","mismatch","true","","Friend","1","","","","","","","","","","",""
"","sat_feedback","","html-keyboard-response","157","297998","0.0-15.0-2.28","Seal","Martijn","null","null","","","","","","<p style = 'font-size: 300%; color:green'>Correct!</p>","","","","","","","","","","","","","","","","","","","",""
"","sat_fixationcross","","html-keyboard-response","158","298508","0.0-15.0-0.29","Seal","Martijn","null","null","","","","","","<div  style='font-size:500%; position:fixed; text-align: center; top:50%; bottom:50%; right:20%; left:20%'>+</div>","500","","","","","","","","","","","","","","","","","","",""
"","sat_trial","","html-keyboard-response","159","299535","0.0-15.0-1.29","Seal","Martijn","1028","e","","","","","","<div style='bottom:60%; right:20%; left:20%; position:fixed'><img src=https://realitybending.github.io/IllusionGameSelfAssociation/experiment/SelfAssociation/stimuli/square.png height=20%></img></div><div  style='font-size:500%; position:fixed; text-align: center; top:50%; bottom:50%; right:20%; left:20%'>+</div><div style = ""font-size:300%; text-align: center; position:fixed; top:70%; right:20%; left:20%""><b>Seal</div>","","square","30","mismatch","mismatch","true","","Stranger","1","","","","","","","","","","",""
"","sat_feedback","","html-keyboard-response","160","300045","0.0-15.0-2.29","Seal","Martijn","null","null","","","","","","<p style = 'font-size: 300%; color:green'>Correct!</p>","","","","","","","","","","","","","","","","","","","",""
"","sat_fixationcross","","html-keyboard-response","161","300557","0.0-15.0-0.30","Seal","Martijn","null","null","","","","","","<div  style='font-size:500%; position:fixed; text-align: center; top:50%; bottom:50%; right:20%; left:20%'>+</div>","500","","","","","","","","","","","","","","","","","","",""
"","sat_trial","","html-keyboard-response","162","301528","0.0-15.0-1.30","Seal","Martijn","970","e","","","","","","<div style='bottom:60%; right:20%; left:20%; position:fixed'><img src=https://realitybending.github.io/IllusionGameSelfAssociation/experiment/SelfAssociation/stimuli/circle.png height=20%></img></div><div  style='font-size:500%; position:fixed; text-align: center; top:50%; bottom:50%; right:20%; left:20%'>+</div><div style = ""font-size:300%; text-align: center; position:fixed; top:70%; right:20%; left:20%""><b>You</div>","","circle","31","mismatch","match","false","","Self","1","","","","","","","","","","",""
"","sat_feedback","","html-keyboard-response","163","302057","0.0-15.0-2.30","Seal","Martijn","null","null","","","","","","<p style = 'font-size: 300%; color:red'>Incorrect!</p>","","","","","","","","","","","","","","","","","","","",""
"","sat_fixationcross","","html-keyboard-response","164","302569","0.0-15.0-0.31","Seal","Martijn","null","null","","","","","","<div  style='font-size:500%; position:fixed; text-align: center; top:50%; bottom:50%; right:20%; left:20%'>+</div>","500","","","","","","","","","","","","","","","","","","",""
"","sat_trial","","html-keyboard-response","165","303328","0.0-15.0-1.31","Seal","Martijn","758","e","","","","","","<div style='bottom:60%; right:20%; left:20%; position:fixed'><img src=https://realitybending.github.io/IllusionGameSelfAssociation/experiment/SelfAssociation/stimuli/circle.png height=20%></img></div><div  style='font-size:500%; position:fixed; text-align: center; top:50%; bottom:50%; right:20%; left:20%'>+</div><div style = ""font-size:300%; text-align: center; position:fixed; top:70%; right:20%; left:20%""><b>Seal</div>","","circle","32","mismatch","mismatch","true","","Stranger","1","","","","","","","","","","",""
"","sat_feedback","","html-keyboard-response","166","303838","0.0-15.0-2.31","Seal","Martijn","null","null","","","","","","<p style = 'font-size: 300%; color:green'>Correct!</p>","","","","","","","","","","","","","","","","","","","",""
"","sat_fixationcross","","html-keyboard-response","167","304351","0.0-15.0-0.32","Seal","Martijn","null","null","","","","","","<div  style='font-size:500%; position:fixed; text-align: center; top:50%; bottom:50%; right:20%; left:20%'>+</div>","500","","","","","","","","","","","","","","","","","","",""
"","sat_trial","","html-keyboard-response","168","305264","0.0-15.0-1.32","Seal","Martijn","912","e","","","","","","<div style='bottom:60%; right:20%; left:20%; position:fixed'><img src=https://realitybending.github.io/IllusionGameSelfAssociation/experiment/SelfAssociation/stimuli/circle.png height=20%></img></div><div  style='font-size:500%; position:fixed; text-align: center; top:50%; bottom:50%; right:20%; left:20%'>+</div><div style = ""font-size:300%; text-align: center; position:fixed; top:70%; right:20%; left:20%""><b>Martijn</div>","","circle","33","mismatch","mismatch","true","","Friend","1","","","","","","","","","","",""
"","sat_feedback","","html-keyboard-response","169","305766","0.0-15.0-2.32","Seal","Martijn","null","null","","","","","","<p style = 'font-size: 300%; color:green'>Correct!</p>","","","","","","","","","","","","","","","","","","","",""
"","sat_fixationcross","","html-keyboard-response","170","306277","0.0-15.0-0.33","Seal","Martijn","null","null","","","","","","<div  style='font-size:500%; position:fixed; text-align: center; top:50%; bottom:50%; right:20%; left:20%'>+</div>","500","","","","","","","","","","","","","","","","","","",""
"","sat_trial","","html-keyboard-response","171","307048","0.0-15.0-1.33","Seal","Martijn","771","e","","","","","","<div style='bottom:60%; right:20%; left:20%; position:fixed'><img src=https://realitybending.github.io/IllusionGameSelfAssociation/experiment/SelfAssociation/stimuli/circle.png height=20%></img></div><div  style='font-size:500%; position:fixed; text-align: center; top:50%; bottom:50%; right:20%; left:20%'>+</div><div style = ""font-size:300%; text-align: center; position:fixed; top:70%; right:20%; left:20%""><b>Martijn</div>","","circle","34","mismatch","mismatch","true","","Friend","1","","","","","","","","","","",""
"","sat_feedback","","html-keyboard-response","172","307549","0.0-15.0-2.33","Seal","Martijn","null","null","","","","","","<p style = 'font-size: 300%; color:green'>Correct!</p>","","","","","","","","","","","","","","","","","","","",""
"","sat_fixationcross","","html-keyboard-response","173","308063","0.0-15.0-0.34","Seal","Martijn","null","null","","","","","","<div  style='font-size:500%; position:fixed; text-align: center; top:50%; bottom:50%; right:20%; left:20%'>+</div>","500","","","","","","","","","","","","","","","","","","",""
"","sat_trial","","html-keyboard-response","174","308856","0.0-15.0-1.34","Seal","Martijn","793","e","","","","","","<div style='bottom:60%; right:20%; left:20%; position:fixed'><img src=https://realitybending.github.io/IllusionGameSelfAssociation/experiment/SelfAssociation/stimuli/circle.png height=20%></img></div><div  style='font-size:500%; position:fixed; text-align: center; top:50%; bottom:50%; right:20%; left:20%'>+</div><div style = ""font-size:300%; text-align: center; position:fixed; top:70%; right:20%; left:20%""><b>Seal</div>","","circle","35","mismatch","mismatch","true","","Stranger","1","","","","","","","","","","",""
"","sat_feedback","","html-keyboard-response","175","309364","0.0-15.0-2.34","Seal","Martijn","null","null","","","","","","<p style = 'font-size: 300%; color:green'>Correct!</p>","","","","","","","","","","","","","","","","","","","",""
"","sat_fixationcross","","html-keyboard-response","176","309878","0.0-15.0-0.35","Seal","Martijn","null","null","","","","","","<div  style='font-size:500%; position:fixed; text-align: center; top:50%; bottom:50%; right:20%; left:20%'>+</div>","500","","","","","","","","","","","","","","","","","","",""
"","sat_trial","","html-keyboard-response","177","310928","0.0-15.0-1.35","Seal","Martijn","1051","e","","","","","","<div style='bottom:60%; right:20%; left:20%; position:fixed'><img src=https://realitybending.github.io/IllusionGameSelfAssociation/experiment/SelfAssociation/stimuli/square.png height=20%></img></div><div  style='font-size:500%; position:fixed; text-align: center; top:50%; bottom:50%; right:20%; left:20%'>+</div><div style = ""font-size:300%; text-align: center; position:fixed; top:70%; right:20%; left:20%""><b>You</div>","","square","36","mismatch","mismatch","true","","Self","1","","","","","","","","","","",""
"","sat_feedback","","html-keyboard-response","178","311430","0.0-15.0-2.35","Seal","Martijn","null","null","","","","","","<p style = 'font-size: 300%; color:green'>Correct!</p>","","","","","","","","","","","","","","","","","","","",""
"","sat_fixationcross","","html-keyboard-response","179","311939","0.0-15.0-0.36","Seal","Martijn","null","null","","","","","","<div  style='font-size:500%; position:fixed; text-align: center; top:50%; bottom:50%; right:20%; left:20%'>+</div>","500","","","","","","","","","","","","","","","","","","",""
"","sat_trial","","html-keyboard-response","180","312848","0.0-15.0-1.36","Seal","Martijn","910","e","","","","","","<div style='bottom:60%; right:20%; left:20%; position:fixed'><img src=https://realitybending.github.io/IllusionGameSelfAssociation/experiment/SelfAssociation/stimuli/triangle.png height=20%></img></div><div  style='font-size:500%; position:fixed; text-align: center; top:50%; bottom:50%; right:20%; left:20%'>+</div><div style = ""font-size:300%; text-align: center; position:fixed; top:70%; right:20%; left:20%""><b>You</div>","","triangle","37","mismatch","mismatch","true","","Self","1","","","","","","","","","","",""
"","sat_feedback","","html-keyboard-response","181","313355","0.0-15.0-2.36","Seal","Martijn","null","null","","","","","","<p style = 'font-size: 300%; color:green'>Correct!</p>","","","","","","","","","","","","","","","","","","","",""
"","sat_fixationcross","","html-keyboard-response","182","313868","0.0-15.0-0.37","Seal","Martijn","null","null","","","","","","<div  style='font-size:500%; position:fixed; text-align: center; top:50%; bottom:50%; right:20%; left:20%'>+</div>","500","","","","","","","","","","","","","","","","","","",""
"","sat_trial","","html-keyboard-response","183","314824","0.0-15.0-1.37","Seal","Martijn","954","i","","","","","","<div style='bottom:60%; right:20%; left:20%; position:fixed'><img src=https://realitybending.github.io/IllusionGameSelfAssociation/experiment/SelfAssociation/stimuli/circle.png height=20%></img></div><div  style='font-size:500%; position:fixed; text-align: center; top:50%; bottom:50%; right:20%; left:20%'>+</div><div style = ""font-size:300%; text-align: center; position:fixed; top:70%; right:20%; left:20%""><b>You</div>","","circle","38","match","match","true","","Self","1","","","","","","","","","","",""
"","sat_feedback","","html-keyboard-response","184","315327","0.0-15.0-2.37","Seal","Martijn","null","null","","","","","","<p style = 'font-size: 300%; color:green'>Correct!</p>","","","","","","","","","","","","","","","","","","","",""
"","sat_fixationcross","","html-keyboard-response","185","315841","0.0-15.0-0.38","Seal","Martijn","null","null","","","","","","<div  style='font-size:500%; position:fixed; text-align: center; top:50%; bottom:50%; right:20%; left:20%'>+</div>","500","","","","","","","","","","","","","","","","","","",""
"","sat_trial","","html-keyboard-response","186","316680","0.0-15.0-1.38","Seal","Martijn","839","i","","","","","","<div style='bottom:60%; right:20%; left:20%; position:fixed'><img src=https://realitybending.github.io/IllusionGameSelfAssociation/experiment/SelfAssociation/stimuli/triangle.png height=20%></img></div><div  style='font-size:500%; position:fixed; text-align: center; top:50%; bottom:50%; right:20%; left:20%'>+</div><div style = ""font-size:300%; text-align: center; position:fixed; top:70%; right:20%; left:20%""><b>Seal</div>","","triangle","39","match","match","true","","Stranger","1","","","","","","","","","","",""
"","sat_feedback","","html-keyboard-response","187","317188","0.0-15.0-2.38","Seal","Martijn","null","null","","","","","","<p style = 'font-size: 300%; color:green'>Correct!</p>","","","","","","","","","","","","","","","","","","","",""
"","sat_fixationcross","","html-keyboard-response","188","317696","0.0-15.0-0.39","Seal","Martijn","null","null","","","","","","<div  style='font-size:500%; position:fixed; text-align: center; top:50%; bottom:50%; right:20%; left:20%'>+</div>","500","","","","","","","","","","","","","","","","","","",""
"","sat_trial","","html-keyboard-response","189","318312","0.0-15.0-1.39","Seal","Martijn","616","i","","","","","","<div style='bottom:60%; right:20%; left:20%; position:fixed'><img src=https://realitybending.github.io/IllusionGameSelfAssociation/experiment/SelfAssociation/stimuli/square.png height=20%></img></div><div  style='font-size:500%; position:fixed; text-align: center; top:50%; bottom:50%; right:20%; left:20%'>+</div><div style = ""font-size:300%; text-align: center; position:fixed; top:70%; right:20%; left:20%""><b>Martijn</div>","","square","40","match","match","true","","Friend","1","","","","","","","","","","",""
"","sat_feedback","","html-keyboard-response","190","318850","0.0-15.0-2.39","Seal","Martijn","null","null","","","","","","<p style = 'font-size: 300%; color:green'>Correct!</p>","","","","","","","","","","","","","","","","","","","",""
"","sat_fixationcross","","html-keyboard-response","191","319365","0.0-15.0-0.40","Seal","Martijn","null","null","","","","","","<div  style='font-size:500%; position:fixed; text-align: center; top:50%; bottom:50%; right:20%; left:20%'>+</div>","500","","","","","","","","","","","","","","","","","","",""
"","sat_trial","","html-keyboard-response","192","320039","0.0-15.0-1.40","Seal","Martijn","676","e","","","","","","<div style='bottom:60%; right:20%; left:20%; position:fixed'><img src=https://realitybending.github.io/IllusionGameSelfAssociation/experiment/SelfAssociation/stimuli/square.png height=20%></img></div><div  style='font-size:500%; position:fixed; text-align: center; top:50%; bottom:50%; right:20%; left:20%'>+</div><div style = ""font-size:300%; text-align: center; position:fixed; top:70%; right:20%; left:20%""><b>Seal</div>","","square","41","mismatch","mismatch","true","","Stranger","1","","","","","","","","","","",""
"","sat_feedback","","html-keyboard-response","193","320542","0.0-15.0-2.40","Seal","Martijn","null","null","","","","","","<p style = 'font-size: 300%; color:green'>Correct!</p>","","","","","","","","","","","","","","","","","","","",""
"","sat_fixationcross","","html-keyboard-response","194","321052","0.0-15.0-0.41","Seal","Martijn","null","null","","","","","","<div  style='font-size:500%; position:fixed; text-align: center; top:50%; bottom:50%; right:20%; left:20%'>+</div>","500","","","","","","","","","","","","","","","","","","",""
"","sat_trial","","html-keyboard-response","195","321968","0.0-15.0-1.41","Seal","Martijn","915","e","","","","","","<div style='bottom:60%; right:20%; left:20%; position:fixed'><img src=https://realitybending.github.io/IllusionGameSelfAssociation/experiment/SelfAssociation/stimuli/triangle.png height=20%></img></div><div  style='font-size:500%; position:fixed; text-align: center; top:50%; bottom:50%; right:20%; left:20%'>+</div><div style = ""font-size:300%; text-align: center; position:fixed; top:70%; right:20%; left:20%""><b>Martijn</div>","","triangle","42","mismatch","mismatch","true","","Friend","1","","","","","","","","","","",""
"","sat_feedback","","html-keyboard-response","196","322476","0.0-15.0-2.41","Seal","Martijn","null","null","","","","","","<p style = 'font-size: 300%; color:green'>Correct!</p>","","","","","","","","","","","","","","","","","","","",""
"","sat_fixationcross","","html-keyboard-response","197","322989","0.0-15.0-0.42","Seal","Martijn","null","null","","","","","","<div  style='font-size:500%; position:fixed; text-align: center; top:50%; bottom:50%; right:20%; left:20%'>+</div>","500","","","","","","","","","","","","","","","","","","",""
"","sat_trial","","html-keyboard-response","198","323776","0.0-15.0-1.42","Seal","Martijn","787","e","","","","","","<div style='bottom:60%; right:20%; left:20%; position:fixed'><img src=https://realitybending.github.io/IllusionGameSelfAssociation/experiment/SelfAssociation/stimuli/square.png height=20%></img></div><div  style='font-size:500%; position:fixed; text-align: center; top:50%; bottom:50%; right:20%; left:20%'>+</div><div style = ""font-size:300%; text-align: center; position:fixed; top:70%; right:20%; left:20%""><b>You</div>","","square","43","mismatch","mismatch","true","","Self","1","","","","","","","","","","",""
"","sat_feedback","","html-keyboard-response","199","324278","0.0-15.0-2.42","Seal","Martijn","null","null","","","","","","<p style = 'font-size: 300%; color:green'>Correct!</p>","","","","","","","","","","","","","","","","","","","",""
"","sat_fixationcross","","html-keyboard-response","200","324788","0.0-15.0-0.43","Seal","Martijn","null","null","","","","","","<div  style='font-size:500%; position:fixed; text-align: center; top:50%; bottom:50%; right:20%; left:20%'>+</div>","500","","","","","","","","","","","","","","","","","","",""
"","sat_trial","","html-keyboard-response","201","325704","0.0-15.0-1.43","Seal","Martijn","915","i","","","","","","<div style='bottom:60%; right:20%; left:20%; position:fixed'><img src=https://realitybending.github.io/IllusionGameSelfAssociation/experiment/SelfAssociation/stimuli/circle.png height=20%></img></div><div  style='font-size:500%; position:fixed; text-align: center; top:50%; bottom:50%; right:20%; left:20%'>+</div><div style = ""font-size:300%; text-align: center; position:fixed; top:70%; right:20%; left:20%""><b>You</div>","","circle","44","match","match","true","","Self","1","","","","","","","","","","",""
"","sat_feedback","","html-keyboard-response","202","326212","0.0-15.0-2.43","Seal","Martijn","null","null","","","","","","<p style = 'font-size: 300%; color:green'>Correct!</p>","","","","","","","","","","","","","","","","","","","",""
"","sat_fixationcross","","html-keyboard-response","203","326724","0.0-15.0-0.44","Seal","Martijn","null","null","","","","","","<div  style='font-size:500%; position:fixed; text-align: center; top:50%; bottom:50%; right:20%; left:20%'>+</div>","500","","","","","","","","","","","","","","","","","","",""
"","sat_trial","","html-keyboard-response","204","327544","0.0-15.0-1.44","Seal","Martijn","819","i","","","","","","<div style='bottom:60%; right:20%; left:20%; position:fixed'><img src=https://realitybending.github.io/IllusionGameSelfAssociation/experiment/SelfAssociation/stimuli/triangle.png height=20%></img></div><div  style='font-size:500%; position:fixed; text-align: center; top:50%; bottom:50%; right:20%; left:20%'>+</div><div style = ""font-size:300%; text-align: center; position:fixed; top:70%; right:20%; left:20%""><b>Seal</div>","","triangle","45","match","match","true","","Stranger","1","","","","","","","","","","",""
"","sat_feedback","","html-keyboard-response","205","328059","0.0-15.0-2.44","Seal","Martijn","null","null","","","","","","<p style = 'font-size: 300%; color:green'>Correct!</p>","","","","","","","","","","","","","","","","","","","",""
"","sat_fixationcross","","html-keyboard-response","206","328571","0.0-15.0-0.45","Seal","Martijn","null","null","","","","","","<div  style='font-size:500%; position:fixed; text-align: center; top:50%; bottom:50%; right:20%; left:20%'>+</div>","500","","","","","","","","","","","","","","","","","","",""
"","sat_trial","","html-keyboard-response","207","329464","0.0-15.0-1.45","Seal","Martijn","891","e","","","","","","<div style='bottom:60%; right:20%; left:20%; position:fixed'><img src=https://realitybending.github.io/IllusionGameSelfAssociation/experiment/SelfAssociation/stimuli/circle.png height=20%></img></div><div  style='font-size:500%; position:fixed; text-align: center; top:50%; bottom:50%; right:20%; left:20%'>+</div><div style = ""font-size:300%; text-align: center; position:fixed; top:70%; right:20%; left:20%""><b>Martijn</div>","","circle","46","mismatch","mismatch","true","","Friend","1","","","","","","","","","","",""
"","sat_feedback","","html-keyboard-response","208","329965","0.0-15.0-2.45","Seal","Martijn","null","null","","","","","","<p style = 'font-size: 300%; color:green'>Correct!</p>","","","","","","","","","","","","","","","","","","","",""
"","sat_fixationcross","","html-keyboard-response","209","330475","0.0-15.0-0.46","Seal","Martijn","null","null","","","","","","<div  style='font-size:500%; position:fixed; text-align: center; top:50%; bottom:50%; right:20%; left:20%'>+</div>","500","","","","","","","","","","","","","","","","","","",""
"","sat_trial","","html-keyboard-response","210","331200","0.0-15.0-1.46","Seal","Martijn","724","i","","","","","","<div style='bottom:60%; right:20%; left:20%; position:fixed'><img src=https://realitybending.github.io/IllusionGameSelfAssociation/experiment/SelfAssociation/stimuli/triangle.png height=20%></img></div><div  style='font-size:500%; position:fixed; text-align: center; top:50%; bottom:50%; right:20%; left:20%'>+</div><div style = ""font-size:300%; text-align: center; position:fixed; top:70%; right:20%; left:20%""><b>Seal</div>","","triangle","47","match","match","true","","Stranger","1","","","","","","","","","","",""
"","sat_feedback","","html-keyboard-response","211","331714","0.0-15.0-2.46","Seal","Martijn","null","null","","","","","","<p style = 'font-size: 300%; color:green'>Correct!</p>","","","","","","","","","","","","","","","","","","","",""
"","sat_fixationcross","","html-keyboard-response","212","332229","0.0-15.0-0.47","Seal","Martijn","null","null","","","","","","<div  style='font-size:500%; position:fixed; text-align: center; top:50%; bottom:50%; right:20%; left:20%'>+</div>","500","","","","","","","","","","","","","","","","","","",""
"","sat_trial","","html-keyboard-response","213","333288","0.0-15.0-1.47","Seal","Martijn","1059","e","","","","","","<div style='bottom:60%; right:20%; left:20%; position:fixed'><img src=https://realitybending.github.io/IllusionGameSelfAssociation/experiment/SelfAssociation/stimuli/circle.png height=20%></img></div><div  style='font-size:500%; position:fixed; text-align: center; top:50%; bottom:50%; right:20%; left:20%'>+</div><div style = ""font-size:300%; text-align: center; position:fixed; top:70%; right:20%; left:20%""><b>Martijn</div>","","circle","48","mismatch","mismatch","true","","Friend","1","","","","","","","","","","",""
"","sat_feedback","","html-keyboard-response","214","333795","0.0-15.0-2.47","Seal","Martijn","null","null","","","","","","<p style = 'font-size: 300%; color:green'>Correct!</p>","","","","","","","","","","","","","","","","","","","",""
"","sat_fixationcross","","html-keyboard-response","215","334306","0.0-15.0-0.48","Seal","Martijn","null","null","","","","","","<div  style='font-size:500%; position:fixed; text-align: center; top:50%; bottom:50%; right:20%; left:20%'>+</div>","500","","","","","","","","","","","","","","","","","","",""
"","sat_trial","","html-keyboard-response","216","335191","0.0-15.0-1.48","Seal","Martijn","885","i","","","","","","<div style='bottom:60%; right:20%; left:20%; position:fixed'><img src=https://realitybending.github.io/IllusionGameSelfAssociation/experiment/SelfAssociation/stimuli/triangle.png height=20%></img></div><div  style='font-size:500%; position:fixed; text-align: center; top:50%; bottom:50%; right:20%; left:20%'>+</div><div style = ""font-size:300%; text-align: center; position:fixed; top:70%; right:20%; left:20%""><b>Seal</div>","","triangle","49","match","match","true","","Stranger","1","","","","","","","","","","",""
"","sat_feedback","","html-keyboard-response","217","335703","0.0-15.0-2.48","Seal","Martijn","null","null","","","","","","<p style = 'font-size: 300%; color:green'>Correct!</p>","","","","","","","","","","","","","","","","","","","",""
"","sat_fixationcross","","html-keyboard-response","218","336217","0.0-15.0-0.49","Seal","Martijn","null","null","","","","","","<div  style='font-size:500%; position:fixed; text-align: center; top:50%; bottom:50%; right:20%; left:20%'>+</div>","500","","","","","","","","","","","","","","","","","","",""
"","sat_trial","","html-keyboard-response","219","336856","0.0-15.0-1.49","Seal","Martijn","638","e","","","","","","<div style='bottom:60%; right:20%; left:20%; position:fixed'><img src=https://realitybending.github.io/IllusionGameSelfAssociation/experiment/SelfAssociation/stimuli/triangle.png height=20%></img></div><div  style='font-size:500%; position:fixed; text-align: center; top:50%; bottom:50%; right:20%; left:20%'>+</div><div style = ""font-size:300%; text-align: center; position:fixed; top:70%; right:20%; left:20%""><b>You</div>","","triangle","50","mismatch","mismatch","true","","Self","1","","","","","","","","","","",""
"","sat_feedback","","html-keyboard-response","220","337367","0.0-15.0-2.49","Seal","Martijn","null","null","","","","","","<p style = 'font-size: 300%; color:green'>Correct!</p>","","","","","","","","","","","","","","","","","","","",""
"","sat_fixationcross","","html-keyboard-response","221","337880","0.0-15.0-0.50","Seal","Martijn","null","null","","","","","","<div  style='font-size:500%; position:fixed; text-align: center; top:50%; bottom:50%; right:20%; left:20%'>+</div>","500","","","","","","","","","","","","","","","","","","",""
"","sat_trial","","html-keyboard-response","222","338576","0.0-15.0-1.50","Seal","Martijn","696","e","","","","","","<div style='bottom:60%; right:20%; left:20%; position:fixed'><img src=https://realitybending.github.io/IllusionGameSelfAssociation/experiment/SelfAssociation/stimuli/triangle.png height=20%></img></div><div  style='font-size:500%; position:fixed; text-align: center; top:50%; bottom:50%; right:20%; left:20%'>+</div><div style = ""font-size:300%; text-align: center; position:fixed; top:70%; right:20%; left:20%""><b>You</div>","","triangle","51","mismatch","mismatch","true","","Self","1","","","","","","","","","","",""
"","sat_feedback","","html-keyboard-response","223","339082","0.0-15.0-2.50","Seal","Martijn","null","null","","","","","","<p style = 'font-size: 300%; color:green'>Correct!</p>","","","","","","","","","","","","","","","","","","","",""
"","sat_fixationcross","","html-keyboard-response","224","339596","0.0-15.0-0.51","Seal","Martijn","null","null","","","","","","<div  style='font-size:500%; position:fixed; text-align: center; top:50%; bottom:50%; right:20%; left:20%'>+</div>","500","","","","","","","","","","","","","","","","","","",""
"","sat_trial","","html-keyboard-response","225","340424","0.0-15.0-1.51","Seal","Martijn","828","i","","","","","","<div style='bottom:60%; right:20%; left:20%; position:fixed'><img src=https://realitybending.github.io/IllusionGameSelfAssociation/experiment/SelfAssociation/stimuli/triangle.png height=20%></img></div><div  style='font-size:500%; position:fixed; text-align: center; top:50%; bottom:50%; right:20%; left:20%'>+</div><div style = ""font-size:300%; text-align: center; position:fixed; top:70%; right:20%; left:20%""><b>Seal</div>","","triangle","52","match","match","true","","Stranger","1","","","","","","","","","","",""
"","sat_feedback","","html-keyboard-response","226","340928","0.0-15.0-2.51","Seal","Martijn","null","null","","","","","","<p style = 'font-size: 300%; color:green'>Correct!</p>","","","","","","","","","","","","","","","","","","","",""
"","sat_fixationcross","","html-keyboard-response","227","341442","0.0-15.0-0.52","Seal","Martijn","null","null","","","","","","<div  style='font-size:500%; position:fixed; text-align: center; top:50%; bottom:50%; right:20%; left:20%'>+</div>","500","","","","","","","","","","","","","","","","","","",""
"","sat_trial","","html-keyboard-response","228","342119","0.0-15.0-1.52","Seal","Martijn","677","e","","","","","","<div style='bottom:60%; right:20%; left:20%; position:fixed'><img src=https://realitybending.github.io/IllusionGameSelfAssociation/experiment/SelfAssociation/stimuli/square.png height=20%></img></div><div  style='font-size:500%; position:fixed; text-align: center; top:50%; bottom:50%; right:20%; left:20%'>+</div><div style = ""font-size:300%; text-align: center; position:fixed; top:70%; right:20%; left:20%""><b>Seal</div>","","square","53","mismatch","mismatch","true","","Stranger","1","","","","","","","","","","",""
"","sat_feedback","","html-keyboard-response","229","342626","0.0-15.0-2.52","Seal","Martijn","null","null","","","","","","<p style = 'font-size: 300%; color:green'>Correct!</p>","","","","","","","","","","","","","","","","","","","",""
"","sat_fixationcross","","html-keyboard-response","230","343140","0.0-15.0-0.53","Seal","Martijn","null","null","","","","","","<div  style='font-size:500%; position:fixed; text-align: center; top:50%; bottom:50%; right:20%; left:20%'>+</div>","500","","","","","","","","","","","","","","","","","","",""
"","sat_trial","","html-keyboard-response","231","343848","0.0-15.0-1.53","Seal","Martijn","708","e","","","","","","<div style='bottom:60%; right:20%; left:20%; position:fixed'><img src=https://realitybending.github.io/IllusionGameSelfAssociation/experiment/SelfAssociation/stimuli/circle.png height=20%></img></div><div  style='font-size:500%; position:fixed; text-align: center; top:50%; bottom:50%; right:20%; left:20%'>+</div><div style = ""font-size:300%; text-align: center; position:fixed; top:70%; right:20%; left:20%""><b>You</div>","","circle","54","mismatch","match","false","","Self","1","","","","","","","","","","",""
"","sat_feedback","","html-keyboard-response","232","344344","0.0-15.0-2.53","Seal","Martijn","496","i","","","","","","<p style = 'font-size: 300%; color:red'>Incorrect!</p>","","","","","","","","","","","","","","","","","","","",""
"","sat_fixationcross","","html-keyboard-response","233","344850","0.0-15.0-0.54","Seal","Martijn","null","null","","","","","","<div  style='font-size:500%; position:fixed; text-align: center; top:50%; bottom:50%; right:20%; left:20%'>+</div>","500","","","","","","","","","","","","","","","","","","",""
"","sat_trial","","html-keyboard-response","234","345640","0.0-15.0-1.54","Seal","Martijn","790","i","","","","","","<div style='bottom:60%; right:20%; left:20%; position:fixed'><img src=https://realitybending.github.io/IllusionGameSelfAssociation/experiment/SelfAssociation/stimuli/circle.png height=20%></img></div><div  style='font-size:500%; position:fixed; text-align: center; top:50%; bottom:50%; right:20%; left:20%'>+</div><div style = ""font-size:300%; text-align: center; position:fixed; top:70%; right:20%; left:20%""><b>You</div>","","circle","55","match","match","true","","Self","1","","","","","","","","","","",""
"","sat_feedback","","html-keyboard-response","235","346151","0.0-15.0-2.54","Seal","Martijn","null","null","","","","","","<p style = 'font-size: 300%; color:green'>Correct!</p>","","","","","","","","","","","","","","","","","","","",""
"","sat_fixationcross","","html-keyboard-response","236","346662","0.0-15.0-0.55","Seal","Martijn","null","null","","","","","","<div  style='font-size:500%; position:fixed; text-align: center; top:50%; bottom:50%; right:20%; left:20%'>+</div>","500","","","","","","","","","","","","","","","","","","",""
