"success","screen","group","trial_type","trial_index","time_elapsed","internal_node_id","label_stranger","label_friend","width","height","webaudio","browser","browser_version","mobile","os","fullscreen","vsync_rate","webcam","microphone","date","time","screen_height","screen_width","researcher","sona_id","prolific_id","study_id","session_id","rt","stimulus","response","question_order","timeout","failed_images","failed_audio","failed_video","trial_duration","shape","trial_number","answer","answer_correct","correct","condition","label_condition","block_number","file","block","correct_response","Illusion_Type","Illusion_Strength","Illusion_Difference","isi","fixation_cross","type","illusion_strength","illusion_difference"
"true","fullscreen","psychedelic_society","fullscreen","0","17607","0.0-0.0","Pink","Adonia","","","","","","","","","","","","","","","","","","","","","","","","","","","","","","","","","","","","","","","","","","","","","","","",""
"","browser_info","","browser-check","1","19781","0.0-1.0","Pink","Adonia","1536","746","true","edge-chromium","122.0.0","false","Windows 10","true","27.69","true","true","22/03/2024","18:00:42","746","1536","","","","","","","","","","","","","","","","","","","","","","","","","","","","","","","","",""
"","consent","","html-button-response","2","36187","0.0-2.0","Pink","Adonia","","","","","","","","","","","","","","","","","","","","","16403","<img src='https://u-paris.fr/wp-content/uploads/2022/03/Universite_Paris-Cite-logo.jpeg' width='300px' align='right'/><br><br><br><br><br><h1>Consentement éclairé</h1><p align='left'>Dans cette étude, vous allez devoir compléter deux tâches sous forme de jeux pour mesurer (i) <b>vos capacités d'associations</b> et (ii) votre <b>sensibilité aux illusions visuelles</b>.</p><p align='left'>Vous aurez aussi à compléter trois questionnaires à propos de (i) <b>votre fonctionnement psychologique</b> et (ii) votre <b>dernière expérience avec une substance psychédélique classique</b>.</p><p align='left'>L'étude dure environ 40 minutes au total. Nous vous demandons de veiller à bien rester concentré et à fournir des réponses authentiques.</p><p align='left'>Votre participation à cette recherche est confidentielle. <b>Vos réponses seront totalement anonymisées</b>, et votre adresse IP ni aucune autres informations identifiantes ne sont collectées.</p><p align='left'>Vos données sont essentielles pour nous. Elles contribuent aux avancées scientifiques sur les thérapies-assistées par psychédéliques. <b>En participant, vous acceptez de suivre les instructions et de fournir des réponses honnêtes.</b> Si vous ne souhaitez pas participer à cette étude, vous pouvez simplement fermer votre navigateur.</p><p align='left'>Vous avez également le droit de vous retirer de l'étude à n'importe quel moment, pour cela, vous pouvez simplement fermer votre navigateur web.</p><p align='left'><br><sub><sup>Si vous avez des questions sur le projets, veuillez contacter Baptiste Fauvel (baptiste.fauvel@u-paris.fr). Cette étude a été expertisée et validée par le comité d'éthique de l'université de Paris.</sup></sub></p>","0","","","","","","","","","","","","","","","","","","","","","","","","",""
"","demographics_1","","survey-multi-choice","3","156001","0.0-3.0-0.0","Pink","Adonia","","","","","","","","","","","","","","","","","","","","","119793","","{""sex"":""Femme"",""student"":""Oui"",""education"":""Université (licence) <sub><sup>ou équivalent</sup></sub>"",""language"":""langue maternelle""}","[0,1,2,3]","","","","","","","","","","","","","","","","","","","","","","","",""
"","demographics_2","","survey-text","4","160575","0.0-3.0-1.0","Pink","Adonia","","","","","","","","","","","","","","","","","","","","","4563","","{""age"":""22""}","","","","","","","","","","","","","","","","","","","","","","","","",""
"","","","html-button-response","5","164159","0.0-4.0","Pink","Adonia","","","","","","","","","","","","","","","","","","","","","3583","<p style=""font-size:18px; color:black;"">Avez-vous <b>déjà</b> été diagnostiqué pour une des pathologies suivantes ?</p>","0","","","","","","","","","","","","","","","","","","","","","","","","",""
"","","","survey-text","6","181454","0.0-5.0-0.0","Pink","Adonia","","","","","","","","","","","","","","","","","","","","","17291","","{""Q0"":""Trouble anxieux généralisé et dépression""}","","","","","","","","","","","","","","","","","","","","","","","","",""
"","","","html-button-response","7","184968","0.0-6.0","Pink","Adonia","","","","","","","","","","","","","","","","","","","","","3513","<p style=""font-size:18px; color:black;"">Etes-vous <b>en ce moment</b> diagnostiqué pour une des pathologies suivantes?</p>","0","","","","","","","","","","","","","","","","","","","","","","","","",""
"","","","survey-text","8","194820","0.0-7.0-0.0","Pink","Adonia","","","","","","","","","","","","","","","","","","","","","9846","","{""Q0"":""Trouble anxieux généralisé et dépression""}","","","","","","","","","","","","","","","","","","","","","","","","",""
"","","","html-button-response","9","197901","0.0-8.0","Pink","Adonia","","","","","","","","","","","","","","","","","","","","","3080","<p style=""font-size:18px; color:black;"">Méditez-vous régulièrement? E.g. au moins une fois par semaine</p>","1","","","","","","","","","","","","","","","","","","","","","","","","",""
"","","","survey-multi-choice","10","201842","0.0-10.0-0.0","Pink","Adonia","","","","","","","","","","","","","","","","","","","","","3938","","{""psych_freq"":""Jamais""}","[0]","","","","","","","","","","","","","","","","","","","","","","","",""
"","","","html-button-response","11","204386","0.0-10.0-1.0","Pink","Adonia","","","","","","","","","","","","","","","","","","","","","2538","<p style=""font-size:18px; color:black;"">Avez-vous consommé une substance psychédélique classique (e.g., LSD, champignons à psilocybe, ayahuasca) au cours du derniers mois ?</p>","1","","","","","","","","","","","","","","","","","","","","","","","","",""
"","","","survey-text","12","228405","0.0-10.0-2.0","Pink","Adonia","","","","","","","","","","","","","","","","","","","","","24015","","{""Q0"":""N/A""}","","","","","","","","","","","","","","","","","","","","","","","","",""
"","","","survey-multi-choice","13","251485","0.0-10.0-3.0","Pink","Adonia","","","","","","","","","","","","","","","","","","","","","23091","","{""intention"":""Curiosité"",""substance"":""Ayahuasca"",""dose"":""Plus faible qu'une dose typique""}","[0,1,2]","","","","","","","","","","","","","","","","","","","","","","","",""
"","","","survey-multi-choice","14","276707","0.0-10.0-4.0","Pink","Adonia","","","","","","","","","","","","","","","","","","","","","25217","","{""cannabis"":""Non"",""Alcool"":""Oui"",""stimulants"":""Non"",""MDMA"":""Non"",""Opiacés"":""Non"",""Dissociatifs"":""Non""}","[0,1,2,3,4,5]","","","","","","","","","","","","","","","","","","","","","","","",""
"true","","","preload","15","276854","0.0-11.0","Pink","Adonia","","","","","","","","","","","","","","","","","","","","","","","","","false","[]","[]","[]","","","","","","","","","","","","","","","","","","","",""
"","SAT_instructions_general_fr","","html-button-response","16","281851","0.0-12.0","Pink","Adonia","","","","","","","","","","","","","","","","","","","","","4995","<h1>Jeu d'associations forme-personne</h1><p>Dans ce jeu, vous allez devoir associer des <b>formes</b> à une <b>personne</b> (vous, votre meilleur ami et une célébrité).</p><p>Pour personnaliser ce jeu, vous allez d'abord devoir choisir un ami et une célébrité que vous connaissez.</p>","0","","","","","","","","","","","","","","","","","","","","","","","","",""
"","SAT_strangerlabel_fr","","survey-multi-choice","17","288242","0.0-13.0","Pink","Adonia","","","","","","","","","","","","","","","","","","","","","6387","","{""label_stranger"":""Pink""}","[0]","","","","","","","","","","","","","","","","","","","","","","","",""
"","SAT_friendlabel_fr","","survey-text","18","291790","0.0-14.0","Pink","Adonia","","","","","","","","","","","","","","","","","","","","","3532","","{""label_friend"":""Adonia""}","","","","","","","","","","","","","","","","","","","","","","","","",""
"","SAT_instructions_practice_fr","","html-button-response","19","319918","0.0-15.0","Pink","Adonia","","","","","","","","","","","","","","","","","","","","","28112","<h1>Entraînement</h1><p>Chaque personne (i.e., Vous, meilleur ami, célébrité) va être associée à une forme spécifique (cercle, carré ou triangle)</p><p>Pendant la phase d'entraînement, une forme sera affichée avec les trois personnes.</p><p>Vous devrez sélectionner la personne qui correspond à la forme présentée aussi rapidement et précisément que possible</p><p>Si la personne correcte est à <b>gauche</b>, appuyez sur <b>'v'</b>.</p><p>Si la personne correcte est au <b>milieu</b>, appuyez sur <b>'b'</b>.</p><p>Si la personne correcte est à <b>droite</b>, appuyez sur <b>'n'</b>.</p><br>","0","","","","","","","","","","","","","","","","","","","","","","","","",""
"","SAT_assignmentscreen","","html-button-response","20","353031","0.0-16.0","Pink","Adonia","","","","","","","","","","","","","","","","","","","","","33110","<h1>Instructions</h1><div id ='align-middle'><b>Vous</b> sera représenté par un  <b>carré</b>  <img src= https://realitybending.github.io/IllusionGameSelfAssociation/experiment/SelfAssociation/stimuli/carré.png height=40></img></div><br><div id ='align-middle'><b>Pink</b> sera représenté par un  <b>triangle</b>  <img src= https://realitybending.github.io/IllusionGameSelfAssociation/experiment/SelfAssociation/stimuli/triangle.png height=40></img></div><br><div id = 'align-middle'><b>Adonia</b> sera représenté par un  <b>cercle</b>  <img src= https://realitybending.github.io/IllusionGameSelfAssociation/experiment/SelfAssociation/stimuli/cercle.png height=40></img></div><br>","0","","","","","","","","","","","","","","","","","","","","","","","","",""
"","sat_fixationcross","","html-keyboard-response","21","353544","0.0-17.0-0.0","Pink","Adonia","","","","","","","","","","","","","","","","","","","","","null","<div  style='font-size:500%; position:fixed; text-align: center; top:50%; bottom:50%; right:20%; left:20%'>+</div>","null","","","","","","500","","","","","","","","","","","","","","","","","","",""
"","sat_practicetrial","","html-keyboard-response","22","354697","0.0-17.0-1.0","Pink","Adonia","","","","","","","","","","","","","","","","","","","","","1151","<div style='bottom:60%; right:20%; left:20%; position:fixed'><img src=https://realitybending.github.io/IllusionGameSelfAssociation/experiment/SelfAssociation/stimuli/cercle.png height=20%></img></div><div  style='font-size:500%; position:fixed; text-align: center; top:50%; bottom:50%; right:20%; left:20%'>+</div><div style = ""font-size:300%; text-align: center; position:fixed; top:70%; left:20%""><b>Vous</b></br></br></br></br>v</div><div style = ""font-size:300%; text-align: center; position:fixed; top:70%; right:20%; left:20%""><b>Pink</b></br></br></br></br>b</div><div style = ""font-size:300%; text-align: center; position:fixed; top:70%; right:20%""><b>Adonia</b></br></br></br></br>n</div>","n","","","","","","","cercle","1","Adonia","Adonia","true","Friend","","","","","","","","","","","","",""
"","sat_feedback","","html-keyboard-response","23","355214","0.0-17.0-2.0","Pink","Adonia","","","","","","","","","","","","","","","","","","","","","null","<p style = 'font-size: 300%; color:green'>Correct!</p>","null","","","","","","","","","","","","","","","","","","","","","","","","",""
"","sat_fixationcross","","html-keyboard-response","24","355730","0.0-17.0-0.1","Pink","Adonia","","","","","","","","","","","","","","","","","","","","","null","<div  style='font-size:500%; position:fixed; text-align: center; top:50%; bottom:50%; right:20%; left:20%'>+</div>","null","","","","","","500","","","","","","","","","","","","","","","","","","",""
"","sat_practicetrial","","html-keyboard-response","25","356619","0.0-17.0-1.1","Pink","Adonia","","","","","","","","","","","","","","","","","","","","","887","<div style='bottom:60%; right:20%; left:20%; position:fixed'><img src=https://realitybending.github.io/IllusionGameSelfAssociation/experiment/SelfAssociation/stimuli/carré.png height=20%></img></div><div  style='font-size:500%; position:fixed; text-align: center; top:50%; bottom:50%; right:20%; left:20%'>+</div><div style = ""font-size:300%; text-align: center; position:fixed; top:70%; left:20%""><b>Vous</b></br></br></br></br>v</div><div style = ""font-size:300%; text-align: center; position:fixed; top:70%; right:20%; left:20%""><b>Pink</b></br></br></br></br>b</div><div style = ""font-size:300%; text-align: center; position:fixed; top:70%; right:20%""><b>Adonia</b></br></br></br></br>n</div>","v","","","","","","","carré","2","Vous","Vous","true","Self","","","","","","","","","","","","",""
"","sat_feedback","","html-keyboard-response","26","357121","0.0-17.0-2.1","Pink","Adonia","","","","","","","","","","","","","","","","","","","","","null","<p style = 'font-size: 300%; color:green'>Correct!</p>","null","","","","","","","","","","","","","","","","","","","","","","","","",""
"","sat_fixationcross","","html-keyboard-response","27","357624","0.0-17.0-0.2","Pink","Adonia","","","","","","","","","","","","","","","","","","","","","null","<div  style='font-size:500%; position:fixed; text-align: center; top:50%; bottom:50%; right:20%; left:20%'>+</div>","null","","","","","","500","","","","","","","","","","","","","","","","","","",""
"","sat_practicetrial","","html-keyboard-response","28","358489","0.0-17.0-1.2","Pink","Adonia","","","","","","","","","","","","","","","","","","","","","864","<div style='bottom:60%; right:20%; left:20%; position:fixed'><img src=https://realitybending.github.io/IllusionGameSelfAssociation/experiment/SelfAssociation/stimuli/cercle.png height=20%></img></div><div  style='font-size:500%; position:fixed; text-align: center; top:50%; bottom:50%; right:20%; left:20%'>+</div><div style = ""font-size:300%; text-align: center; position:fixed; top:70%; left:20%""><b>Vous</b></br></br></br></br>v</div><div style = ""font-size:300%; text-align: center; position:fixed; top:70%; right:20%; left:20%""><b>Pink</b></br></br></br></br>b</div><div style = ""font-size:300%; text-align: center; position:fixed; top:70%; right:20%""><b>Adonia</b></br></br></br></br>n</div>","n","","","","","","","cercle","3","Adonia","Adonia","true","Friend","","","","","","","","","","","","",""
"","sat_feedback","","html-keyboard-response","29","358999","0.0-17.0-2.2","Pink","Adonia","","","","","","","","","","","","","","","","","","","","","null","<p style = 'font-size: 300%; color:green'>Correct!</p>","null","","","","","","","","","","","","","","","","","","","","","","","","",""
"","sat_fixationcross","","html-keyboard-response","30","359513","0.0-17.0-0.3","Pink","Adonia","","","","","","","","","","","","","","","","","","","","","null","<div  style='font-size:500%; position:fixed; text-align: center; top:50%; bottom:50%; right:20%; left:20%'>+</div>","null","","","","","","500","","","","","","","","","","","","","","","","","","",""
"","sat_practicetrial","","html-keyboard-response","31","360048","0.0-17.0-1.3","Pink","Adonia","","","","","","","","","","","","","","","","","","","","","534","<div style='bottom:60%; right:20%; left:20%; position:fixed'><img src=https://realitybending.github.io/IllusionGameSelfAssociation/experiment/SelfAssociation/stimuli/cercle.png height=20%></img></div><div  style='font-size:500%; position:fixed; text-align: center; top:50%; bottom:50%; right:20%; left:20%'>+</div><div style = ""font-size:300%; text-align: center; position:fixed; top:70%; left:20%""><b>Vous</b></br></br></br></br>v</div><div style = ""font-size:300%; text-align: center; position:fixed; top:70%; right:20%; left:20%""><b>Pink</b></br></br></br></br>b</div><div style = ""font-size:300%; text-align: center; position:fixed; top:70%; right:20%""><b>Adonia</b></br></br></br></br>n</div>","n","","","","","","","cercle","4","Adonia","Adonia","true","Friend","","","","","","","","","","","","",""
"","sat_feedback","","html-keyboard-response","32","360563","0.0-17.0-2.3","Pink","Adonia","","","","","","","","","","","","","","","","","","","","","null","<p style = 'font-size: 300%; color:green'>Correct!</p>","null","","","","","","","","","","","","","","","","","","","","","","","","",""
"","sat_fixationcross","","html-keyboard-response","33","361068","0.0-17.0-0.4","Pink","Adonia","","","","","","","","","","","","","","","","","","","","","null","<div  style='font-size:500%; position:fixed; text-align: center; top:50%; bottom:50%; right:20%; left:20%'>+</div>","null","","","","","","500","","","","","","","","","","","","","","","","","","",""
"","sat_practicetrial","","html-keyboard-response","34","361443","0.0-17.0-1.4","Pink","Adonia","","","","","","","","","","","","","","","","","","","","","374","<div style='bottom:60%; right:20%; left:20%; position:fixed'><img src=https://realitybending.github.io/IllusionGameSelfAssociation/experiment/SelfAssociation/stimuli/carré.png height=20%></img></div><div  style='font-size:500%; position:fixed; text-align: center; top:50%; bottom:50%; right:20%; left:20%'>+</div><div style = ""font-size:300%; text-align: center; position:fixed; top:70%; left:20%""><b>Vous</b></br></br></br></br>v</div><div style = ""font-size:300%; text-align: center; position:fixed; top:70%; right:20%; left:20%""><b>Pink</b></br></br></br></br>b</div><div style = ""font-size:300%; text-align: center; position:fixed; top:70%; right:20%""><b>Adonia</b></br></br></br></br>n</div>","v","","","","","","","carré","5","Vous","Vous","true","Self","","","","","","","","","","","","",""
"","sat_feedback","","html-keyboard-response","35","361953","0.0-17.0-2.4","Pink","Adonia","","","","","","","","","","","","","","","","","","","","","null","<p style = 'font-size: 300%; color:green'>Correct!</p>","null","","","","","","","","","","","","","","","","","","","","","","","","",""
"","sat_fixationcross","","html-keyboard-response","36","362468","0.0-17.0-0.5","Pink","Adonia","","","","","","","","","","","","","","","","","","","","","null","<div  style='font-size:500%; position:fixed; text-align: center; top:50%; bottom:50%; right:20%; left:20%'>+</div>","null","","","","","","500","","","","","","","","","","","","","","","","","","",""
"","sat_practicetrial","","html-keyboard-response","37","362786","0.0-17.0-1.5","Pink","Adonia","","","","","","","","","","","","","","","","","","","","","316","<div style='bottom:60%; right:20%; left:20%; position:fixed'><img src=https://realitybending.github.io/IllusionGameSelfAssociation/experiment/SelfAssociation/stimuli/carré.png height=20%></img></div><div  style='font-size:500%; position:fixed; text-align: center; top:50%; bottom:50%; right:20%; left:20%'>+</div><div style = ""font-size:300%; text-align: center; position:fixed; top:70%; left:20%""><b>Vous</b></br></br></br></br>v</div><div style = ""font-size:300%; text-align: center; position:fixed; top:70%; right:20%; left:20%""><b>Pink</b></br></br></br></br>b</div><div style = ""font-size:300%; text-align: center; position:fixed; top:70%; right:20%""><b>Adonia</b></br></br></br></br>n</div>","v","","","","","","","carré","6","Vous","Vous","true","Self","","","","","","","","","","","","",""
"","sat_feedback","","html-keyboard-response","38","363297","0.0-17.0-2.5","Pink","Adonia","","","","","","","","","","","","","","","","","","","","","null","<p style = 'font-size: 300%; color:green'>Correct!</p>","null","","","","","","","","","","","","","","","","","","","","","","","","",""
"","sat_fixationcross","","html-keyboard-response","39","363813","0.0-17.0-0.6","Pink","Adonia","","","","","","","","","","","","","","","","","","","","","null","<div  style='font-size:500%; position:fixed; text-align: center; top:50%; bottom:50%; right:20%; left:20%'>+</div>","null","","","","","","500","","","","","","","","","","","","","","","","","","",""
"","sat_practicetrial","","html-keyboard-response","40","364100","0.0-17.0-1.6","Pink","Adonia","","","","","","","","","","","","","","","","","","","","","285","<div style='bottom:60%; right:20%; left:20%; position:fixed'><img src=https://realitybending.github.io/IllusionGameSelfAssociation/experiment/SelfAssociation/stimuli/carré.png height=20%></img></div><div  style='font-size:500%; position:fixed; text-align: center; top:50%; bottom:50%; right:20%; left:20%'>+</div><div style = ""font-size:300%; text-align: center; position:fixed; top:70%; left:20%""><b>Vous</b></br></br></br></br>v</div><div style = ""font-size:300%; text-align: center; position:fixed; top:70%; right:20%; left:20%""><b>Pink</b></br></br></br></br>b</div><div style = ""font-size:300%; text-align: center; position:fixed; top:70%; right:20%""><b>Adonia</b></br></br></br></br>n</div>","v","","","","","","","carré","7","Vous","Vous","true","Self","","","","","","","","","","","","",""
"","sat_feedback","","html-keyboard-response","41","364604","0.0-17.0-2.6","Pink","Adonia","","","","","","","","","","","","","","","","","","","","","null","<p style = 'font-size: 300%; color:green'>Correct!</p>","null","","","","","","","","","","","","","","","","","","","","","","","","",""
"","sat_fixationcross","","html-keyboard-response","42","365106","0.0-17.0-0.7","Pink","Adonia","","","","","","","","","","","","","","","","","","","","","null","<div  style='font-size:500%; position:fixed; text-align: center; top:50%; bottom:50%; right:20%; left:20%'>+</div>","null","","","","","","500","","","","","","","","","","","","","","","","","","",""
"","sat_practicetrial","","html-keyboard-response","43","365509","0.0-17.0-1.7","Pink","Adonia","","","","","","","","","","","","","","","","","","","","","402","<div style='bottom:60%; right:20%; left:20%; position:fixed'><img src=https://realitybending.github.io/IllusionGameSelfAssociation/experiment/SelfAssociation/stimuli/triangle.png height=20%></img></div><div  style='font-size:500%; position:fixed; text-align: center; top:50%; bottom:50%; right:20%; left:20%'>+</div><div style = ""font-size:300%; text-align: center; position:fixed; top:70%; left:20%""><b>Vous</b></br></br></br></br>v</div><div style = ""font-size:300%; text-align: center; position:fixed; top:70%; right:20%; left:20%""><b>Pink</b></br></br></br></br>b</div><div style = ""font-size:300%; text-align: center; position:fixed; top:70%; right:20%""><b>Adonia</b></br></br></br></br>n</div>","b","","","","","","","triangle","8","Pink","Pink","true","Stranger","","","","","","","","","","","","",""
"","sat_feedback","","html-keyboard-response","44","366015","0.0-17.0-2.7","Pink","Adonia","","","","","","","","","","","","","","","","","","","","","null","<p style = 'font-size: 300%; color:green'>Correct!</p>","null","","","","","","","","","","","","","","","","","","","","","","","","",""
"","sat_fixationcross","","html-keyboard-response","45","366517","0.0-17.0-0.8","Pink","Adonia","","","","","","","","","","","","","","","","","","","","","null","<div  style='font-size:500%; position:fixed; text-align: center; top:50%; bottom:50%; right:20%; left:20%'>+</div>","null","","","","","","500","","","","","","","","","","","","","","","","","","",""
"","sat_practicetrial","","html-keyboard-response","46","366887","0.0-17.0-1.8","Pink","Adonia","","","","","","","","","","","","","","","","","","","","","369","<div style='bottom:60%; right:20%; left:20%; position:fixed'><img src=https://realitybending.github.io/IllusionGameSelfAssociation/experiment/SelfAssociation/stimuli/carré.png height=20%></img></div><div  style='font-size:500%; position:fixed; text-align: center; top:50%; bottom:50%; right:20%; left:20%'>+</div><div style = ""font-size:300%; text-align: center; position:fixed; top:70%; left:20%""><b>Vous</b></br></br></br></br>v</div><div style = ""font-size:300%; text-align: center; position:fixed; top:70%; right:20%; left:20%""><b>Pink</b></br></br></br></br>b</div><div style = ""font-size:300%; text-align: center; position:fixed; top:70%; right:20%""><b>Adonia</b></br></br></br></br>n</div>","n","","","","","","","carré","9","Adonia","Vous","false","Self","","","","","","","","","","","","",""
"","sat_feedback","","html-keyboard-response","47","367394","0.0-17.0-2.8","Pink","Adonia","","","","","","","","","","","","","","","","","","","","","null","<p style = 'font-size: 300%; color:red'>Incorrect!</p>","null","","","","","","","","","","","","","","","","","","","","","","","","",""
"","sat_fixationcross","","html-keyboard-response","48","367909","0.0-17.0-0.9","Pink","Adonia","","","","","","","","","","","","","","","","","","","","","null","<div  style='font-size:500%; position:fixed; text-align: center; top:50%; bottom:50%; right:20%; left:20%'>+</div>","null","","","","","","500","","","","","","","","","","","","","","","","","","",""
"","sat_practicetrial","","html-keyboard-response","49","368412","0.0-17.0-1.9","Pink","Adonia","","","","","","","","","","","","","","","","","","","","","502","<div style='bottom:60%; right:20%; left:20%; position:fixed'><img src=https://realitybending.github.io/IllusionGameSelfAssociation/experiment/SelfAssociation/stimuli/triangle.png height=20%></img></div><div  style='font-size:500%; position:fixed; text-align: center; top:50%; bottom:50%; right:20%; left:20%'>+</div><div style = ""font-size:300%; text-align: center; position:fixed; top:70%; left:20%""><b>Vous</b></br></br></br></br>v</div><div style = ""font-size:300%; text-align: center; position:fixed; top:70%; right:20%; left:20%""><b>Pink</b></br></br></br></br>b</div><div style = ""font-size:300%; text-align: center; position:fixed; top:70%; right:20%""><b>Adonia</b></br></br></br></br>n</div>","b","","","","","","","triangle","10","Pink","Pink","true","Stranger","","","","","","","","","","","","",""
"","sat_feedback","","html-keyboard-response","50","368925","0.0-17.0-2.9","Pink","Adonia","","","","","","","","","","","","","","","","","","","","","null","<p style = 'font-size: 300%; color:green'>Correct!</p>","null","","","","","","","","","","","","","","","","","","","","","","","","",""
"","sat_fixationcross","","html-keyboard-response","51","369442","0.0-17.0-0.10","Pink","Adonia","","","","","","","","","","","","","","","","","","","","","null","<div  style='font-size:500%; position:fixed; text-align: center; top:50%; bottom:50%; right:20%; left:20%'>+</div>","null","","","","","","500","","","","","","","","","","","","","","","","","","",""
"","sat_practicetrial","","html-keyboard-response","52","369955","0.0-17.0-1.10","Pink","Adonia","","","","","","","","","","","","","","","","","","","","","511","<div style='bottom:60%; right:20%; left:20%; position:fixed'><img src=https://realitybending.github.io/IllusionGameSelfAssociation/experiment/SelfAssociation/stimuli/triangle.png height=20%></img></div><div  style='font-size:500%; position:fixed; text-align: center; top:50%; bottom:50%; right:20%; left:20%'>+</div><div style = ""font-size:300%; text-align: center; position:fixed; top:70%; left:20%""><b>Vous</b></br></br></br></br>v</div><div style = ""font-size:300%; text-align: center; position:fixed; top:70%; right:20%; left:20%""><b>Pink</b></br></br></br></br>b</div><div style = ""font-size:300%; text-align: center; position:fixed; top:70%; right:20%""><b>Adonia</b></br></br></br></br>n</div>","n","","","","","","","triangle","11","Adonia","Pink","false","Stranger","","","","","","","","","","","","",""
"","sat_feedback","","html-keyboard-response","53","370468","0.0-17.0-2.10","Pink","Adonia","","","","","","","","","","","","","","","","","","","","","null","<p style = 'font-size: 300%; color:red'>Incorrect!</p>","null","","","","","","","","","","","","","","","","","","","","","","","","",""
"","sat_fixationcross","","html-keyboard-response","54","370973","0.0-17.0-0.11","Pink","Adonia","","","","","","","","","","","","","","","","","","","","","null","<div  style='font-size:500%; position:fixed; text-align: center; top:50%; bottom:50%; right:20%; left:20%'>+</div>","null","","","","","","500","","","","","","","","","","","","","","","","","","",""
"","sat_practicetrial","","html-keyboard-response","55","371457","0.0-17.0-1.11","Pink","Adonia","","","","","","","","","","","","","","","","","","","","","484","<div style='bottom:60%; right:20%; left:20%; position:fixed'><img src=https://realitybending.github.io/IllusionGameSelfAssociation/experiment/SelfAssociation/stimuli/triangle.png height=20%></img></div><div  style='font-size:500%; position:fixed; text-align: center; top:50%; bottom:50%; right:20%; left:20%'>+</div><div style = ""font-size:300%; text-align: center; position:fixed; top:70%; left:20%""><b>Vous</b></br></br></br></br>v</div><div style = ""font-size:300%; text-align: center; position:fixed; top:70%; right:20%; left:20%""><b>Pink</b></br></br></br></br>b</div><div style = ""font-size:300%; text-align: center; position:fixed; top:70%; right:20%""><b>Adonia</b></br></br></br></br>n</div>","b","","","","","","","triangle","12","Pink","Pink","true","Stranger","","","","","","","","","","","","",""
"","sat_feedback","","html-keyboard-response","56","371973","0.0-17.0-2.11","Pink","Adonia","","","","","","","","","","","","","","","","","","","","","null","<p style = 'font-size: 300%; color:green'>Correct!</p>","null","","","","","","","","","","","","","","","","","","","","","","","","",""
"","sat_fixationcross","","html-keyboard-response","57","372475","0.0-17.0-0.12","Pink","Adonia","","","","","","","","","","","","","","","","","","","","","null","<div  style='font-size:500%; position:fixed; text-align: center; top:50%; bottom:50%; right:20%; left:20%'>+</div>","null","","","","","","500","","","","","","","","","","","","","","","","","","",""
"","sat_practicetrial","","html-keyboard-response","58","372955","0.0-17.0-1.12","Pink","Adonia","","","","","","","","","","","","","","","","","","","","","478","<div style='bottom:60%; right:20%; left:20%; position:fixed'><img src=https://realitybending.github.io/IllusionGameSelfAssociation/experiment/SelfAssociation/stimuli/carré.png height=20%></img></div><div  style='font-size:500%; position:fixed; text-align: center; top:50%; bottom:50%; right:20%; left:20%'>+</div><div style = ""font-size:300%; text-align: center; position:fixed; top:70%; left:20%""><b>Vous</b></br></br></br></br>v</div><div style = ""font-size:300%; text-align: center; position:fixed; top:70%; right:20%; left:20%""><b>Pink</b></br></br></br></br>b</div><div style = ""font-size:300%; text-align: center; position:fixed; top:70%; right:20%""><b>Adonia</b></br></br></br></br>n</div>","v","","","","","","","carré","13","Vous","Vous","true","Self","","","","","","","","","","","","",""
"","sat_feedback","","html-keyboard-response","59","373458","0.0-17.0-2.12","Pink","Adonia","","","","","","","","","","","","","","","","","","","","","null","<p style = 'font-size: 300%; color:green'>Correct!</p>","null","","","","","","","","","","","","","","","","","","","","","","","","",""
"","sat_fixationcross","","html-keyboard-response","60","373975","0.0-17.0-0.13","Pink","Adonia","","","","","","","","","","","","","","","","","","","","","null","<div  style='font-size:500%; position:fixed; text-align: center; top:50%; bottom:50%; right:20%; left:20%'>+</div>","null","","","","","","500","","","","","","","","","","","","","","","","","","",""
"","sat_practicetrial","","html-keyboard-response","61","374414","0.0-17.0-1.13","Pink","Adonia","","","","","","","","","","","","","","","","","","","","","438","<div style='bottom:60%; right:20%; left:20%; position:fixed'><img src=https://realitybending.github.io/IllusionGameSelfAssociation/experiment/SelfAssociation/stimuli/triangle.png height=20%></img></div><div  style='font-size:500%; position:fixed; text-align: center; top:50%; bottom:50%; right:20%; left:20%'>+</div><div style = ""font-size:300%; text-align: center; position:fixed; top:70%; left:20%""><b>Vous</b></br></br></br></br>v</div><div style = ""font-size:300%; text-align: center; position:fixed; top:70%; right:20%; left:20%""><b>Pink</b></br></br></br></br>b</div><div style = ""font-size:300%; text-align: center; position:fixed; top:70%; right:20%""><b>Adonia</b></br></br></br></br>n</div>","b","","","","","","","triangle","14","Pink","Pink","true","Stranger","","","","","","","","","","","","",""
"","sat_feedback","","html-keyboard-response","62","374922","0.0-17.0-2.13","Pink","Adonia","","","","","","","","","","","","","","","","","","","","","null","<p style = 'font-size: 300%; color:green'>Correct!</p>","null","","","","","","","","","","","","","","","","","","","","","","","","",""
"","sat_fixationcross","","html-keyboard-response","63","375425","0.0-17.0-0.14","Pink","Adonia","","","","","","","","","","","","","","","","","","","","","null","<div  style='font-size:500%; position:fixed; text-align: center; top:50%; bottom:50%; right:20%; left:20%'>+</div>","null","","","","","","500","","","","","","","","","","","","","","","","","","",""
"","sat_practicetrial","","html-keyboard-response","64","375872","0.0-17.0-1.14","Pink","Adonia","","","","","","","","","","","","","","","","","","","","","446","<div style='bottom:60%; right:20%; left:20%; position:fixed'><img src=https://realitybending.github.io/IllusionGameSelfAssociation/experiment/SelfAssociation/stimuli/carré.png height=20%></img></div><div  style='font-size:500%; position:fixed; text-align: center; top:50%; bottom:50%; right:20%; left:20%'>+</div><div style = ""font-size:300%; text-align: center; position:fixed; top:70%; left:20%""><b>Vous</b></br></br></br></br>v</div><div style = ""font-size:300%; text-align: center; position:fixed; top:70%; right:20%; left:20%""><b>Pink</b></br></br></br></br>b</div><div style = ""font-size:300%; text-align: center; position:fixed; top:70%; right:20%""><b>Adonia</b></br></br></br></br>n</div>","v","","","","","","","carré","15","Vous","Vous","true","Self","","","","","","","","","","","","",""
"","sat_feedback","","html-keyboard-response","65","376381","0.0-17.0-2.14","Pink","Adonia","","","","","","","","","","","","","","","","","","","","","null","<p style = 'font-size: 300%; color:green'>Correct!</p>","null","","","","","","","","","","","","","","","","","","","","","","","","",""
"","sat_fixationcross","","html-keyboard-response","66","376883","0.0-17.0-0.15","Pink","Adonia","","","","","","","","","","","","","","","","","","","","","null","<div  style='font-size:500%; position:fixed; text-align: center; top:50%; bottom:50%; right:20%; left:20%'>+</div>","null","","","","","","500","","","","","","","","","","","","","","","","","","",""
"","sat_practicetrial","","html-keyboard-response","67","377328","0.0-17.0-1.15","Pink","Adonia","","","","","","","","","","","","","","","","","","","","","444","<div style='bottom:60%; right:20%; left:20%; position:fixed'><img src=https://realitybending.github.io/IllusionGameSelfAssociation/experiment/SelfAssociation/stimuli/cercle.png height=20%></img></div><div  style='font-size:500%; position:fixed; text-align: center; top:50%; bottom:50%; right:20%; left:20%'>+</div><div style = ""font-size:300%; text-align: center; position:fixed; top:70%; left:20%""><b>Vous</b></br></br></br></br>v</div><div style = ""font-size:300%; text-align: center; position:fixed; top:70%; right:20%; left:20%""><b>Pink</b></br></br></br></br>b</div><div style = ""font-size:300%; text-align: center; position:fixed; top:70%; right:20%""><b>Adonia</b></br></br></br></br>n</div>","n","","","","","","","cercle","16","Adonia","Adonia","true","Friend","","","","","","","","","","","","",""
"","sat_feedback","","html-keyboard-response","68","377833","0.0-17.0-2.15","Pink","Adonia","","","","","","","","","","","","","","","","","","","","","null","<p style = 'font-size: 300%; color:green'>Correct!</p>","null","","","","","","","","","","","","","","","","","","","","","","","","",""
"","sat_fixationcross","","html-keyboard-response","69","378334","0.0-17.0-0.16","Pink","Adonia","","","","","","","","","","","","","","","","","","","","","null","<div  style='font-size:500%; position:fixed; text-align: center; top:50%; bottom:50%; right:20%; left:20%'>+</div>","null","","","","","","500","","","","","","","","","","","","","","","","","","",""
"","sat_practicetrial","","html-keyboard-response","70","378746","0.0-17.0-1.16","Pink","Adonia","","","","","","","","","","","","","","","","","","","","","411","<div style='bottom:60%; right:20%; left:20%; position:fixed'><img src=https://realitybending.github.io/IllusionGameSelfAssociation/experiment/SelfAssociation/stimuli/cercle.png height=20%></img></div><div  style='font-size:500%; position:fixed; text-align: center; top:50%; bottom:50%; right:20%; left:20%'>+</div><div style = ""font-size:300%; text-align: center; position:fixed; top:70%; left:20%""><b>Vous</b></br></br></br></br>v</div><div style = ""font-size:300%; text-align: center; position:fixed; top:70%; right:20%; left:20%""><b>Pink</b></br></br></br></br>b</div><div style = ""font-size:300%; text-align: center; position:fixed; top:70%; right:20%""><b>Adonia</b></br></br></br></br>n</div>","n","","","","","","","cercle","17","Adonia","Adonia","true","Friend","","","","","","","","","","","","",""
"","sat_feedback","","html-keyboard-response","71","379258","0.0-17.0-2.16","Pink","Adonia","","","","","","","","","","","","","","","","","","","","","null","<p style = 'font-size: 300%; color:green'>Correct!</p>","null","","","","","","","","","","","","","","","","","","","","","","","","",""
"","sat_fixationcross","","html-keyboard-response","72","379765","0.0-17.0-0.17","Pink","Adonia","","","","","","","","","","","","","","","","","","","","","null","<div  style='font-size:500%; position:fixed; text-align: center; top:50%; bottom:50%; right:20%; left:20%'>+</div>","null","","","","","","500","","","","","","","","","","","","","","","","","","",""
"","sat_practicetrial","","html-keyboard-response","73","380299","0.0-17.0-1.17","Pink","Adonia","","","","","","","","","","","","","","","","","","","","","532","<div style='bottom:60%; right:20%; left:20%; position:fixed'><img src=https://realitybending.github.io/IllusionGameSelfAssociation/experiment/SelfAssociation/stimuli/carré.png height=20%></img></div><div  style='font-size:500%; position:fixed; text-align: center; top:50%; bottom:50%; right:20%; left:20%'>+</div><div style = ""font-size:300%; text-align: center; position:fixed; top:70%; left:20%""><b>Vous</b></br></br></br></br>v</div><div style = ""font-size:300%; text-align: center; position:fixed; top:70%; right:20%; left:20%""><b>Pink</b></br></br></br></br>b</div><div style = ""font-size:300%; text-align: center; position:fixed; top:70%; right:20%""><b>Adonia</b></br></br></br></br>n</div>","v","","","","","","","carré","18","Vous","Vous","true","Self","","","","","","","","","","","","",""
"","sat_feedback","","html-keyboard-response","74","380808","0.0-17.0-2.17","Pink","Adonia","","","","","","","","","","","","","","","","","","","","","null","<p style = 'font-size: 300%; color:green'>Correct!</p>","null","","","","","","","","","","","","","","","","","","","","","","","","",""
"","sat_fixationcross","","html-keyboard-response","75","381310","0.0-17.0-0.18","Pink","Adonia","","","","","","","","","","","","","","","","","","","","","null","<div  style='font-size:500%; position:fixed; text-align: center; top:50%; bottom:50%; right:20%; left:20%'>+</div>","null","","","","","","500","","","","","","","","","","","","","","","","","","",""
"","sat_practicetrial","","html-keyboard-response","76","381720","0.0-17.0-1.18","Pink","Adonia","","","","","","","","","","","","","","","","","","","","","409","<div style='bottom:60%; right:20%; left:20%; position:fixed'><img src=https://realitybending.github.io/IllusionGameSelfAssociation/experiment/SelfAssociation/stimuli/triangle.png height=20%></img></div><div  style='font-size:500%; position:fixed; text-align: center; top:50%; bottom:50%; right:20%; left:20%'>+</div><div style = ""font-size:300%; text-align: center; position:fixed; top:70%; left:20%""><b>Vous</b></br></br></br></br>v</div><div style = ""font-size:300%; text-align: center; position:fixed; top:70%; right:20%; left:20%""><b>Pink</b></br></br></br></br>b</div><div style = ""font-size:300%; text-align: center; position:fixed; top:70%; right:20%""><b>Adonia</b></br></br></br></br>n</div>","b","","","","","","","triangle","19","Pink","Pink","true","Stranger","","","","","","","","","","","","",""
"","sat_feedback","","html-keyboard-response","77","382230","0.0-17.0-2.18","Pink","Adonia","","","","","","","","","","","","","","","","","","","","","null","<p style = 'font-size: 300%; color:green'>Correct!</p>","null","","","","","","","","","","","","","","","","","","","","","","","","",""
"","sat_fixationcross","","html-keyboard-response","78","382745","0.0-17.0-0.19","Pink","Adonia","","","","","","","","","","","","","","","","","","","","","null","<div  style='font-size:500%; position:fixed; text-align: center; top:50%; bottom:50%; right:20%; left:20%'>+</div>","null","","","","","","500","","","","","","","","","","","","","","","","","","",""
"","sat_practicetrial","","html-keyboard-response","79","383181","0.0-17.0-1.19","Pink","Adonia","","","","","","","","","","","","","","","","","","","","","434","<div style='bottom:60%; right:20%; left:20%; position:fixed'><img src=https://realitybending.github.io/IllusionGameSelfAssociation/experiment/SelfAssociation/stimuli/cercle.png height=20%></img></div><div  style='font-size:500%; position:fixed; text-align: center; top:50%; bottom:50%; right:20%; left:20%'>+</div><div style = ""font-size:300%; text-align: center; position:fixed; top:70%; left:20%""><b>Vous</b></br></br></br></br>v</div><div style = ""font-size:300%; text-align: center; position:fixed; top:70%; right:20%; left:20%""><b>Pink</b></br></br></br></br>b</div><div style = ""font-size:300%; text-align: center; position:fixed; top:70%; right:20%""><b>Adonia</b></br></br></br></br>n</div>","v","","","","","","","cercle","20","Vous","Adonia","false","Friend","","","","","","","","","","","","",""
"","sat_feedback","","html-keyboard-response","80","383682","0.0-17.0-2.19","Pink","Adonia","","","","","","","","","","","","","","","","","","","","","null","<p style = 'font-size: 300%; color:red'>Incorrect!</p>","null","","","","","","","","","","","","","","","","","","","","","","","","",""
"","sat_fixationcross","","html-keyboard-response","81","384184","0.0-17.0-0.20","Pink","Adonia","","","","","","","","","","","","","","","","","","","","","null","<div  style='font-size:500%; position:fixed; text-align: center; top:50%; bottom:50%; right:20%; left:20%'>+</div>","null","","","","","","500","","","","","","","","","","","","","","","","","","",""
"","sat_practicetrial","","html-keyboard-response","82","384796","0.0-17.0-1.20","Pink","Adonia","","","","","","","","","","","","","","","","","","","","","611","<div style='bottom:60%; right:20%; left:20%; position:fixed'><img src=https://realitybending.github.io/IllusionGameSelfAssociation/experiment/SelfAssociation/stimuli/triangle.png height=20%></img></div><div  style='font-size:500%; position:fixed; text-align: center; top:50%; bottom:50%; right:20%; left:20%'>+</div><div style = ""font-size:300%; text-align: center; position:fixed; top:70%; left:20%""><b>Vous</b></br></br></br></br>v</div><div style = ""font-size:300%; text-align: center; position:fixed; top:70%; right:20%; left:20%""><b>Pink</b></br></br></br></br>b</div><div style = ""font-size:300%; text-align: center; position:fixed; top:70%; right:20%""><b>Adonia</b></br></br></br></br>n</div>","b","","","","","","","triangle","21","Pink","Pink","true","Stranger","","","","","","","","","","","","",""
"","sat_feedback","","html-keyboard-response","83","385311","0.0-17.0-2.20","Pink","Adonia","","","","","","","","","","","","","","","","","","","","","null","<p style = 'font-size: 300%; color:green'>Correct!</p>","null","","","","","","","","","","","","","","","","","","","","","","","","",""
"","sat_fixationcross","","html-keyboard-response","84","385826","0.0-17.0-0.21","Pink","Adonia","","","","","","","","","","","","","","","","","","","","","null","<div  style='font-size:500%; position:fixed; text-align: center; top:50%; bottom:50%; right:20%; left:20%'>+</div>","null","","","","","","500","","","","","","","","","","","","","","","","","","",""
"","sat_practicetrial","","html-keyboard-response","85","386237","0.0-17.0-1.21","Pink","Adonia","","","","","","","","","","","","","","","","","","","","","410","<div style='bottom:60%; right:20%; left:20%; position:fixed'><img src=https://realitybending.github.io/IllusionGameSelfAssociation/experiment/SelfAssociation/stimuli/carré.png height=20%></img></div><div  style='font-size:500%; position:fixed; text-align: center; top:50%; bottom:50%; right:20%; left:20%'>+</div><div style = ""font-size:300%; text-align: center; position:fixed; top:70%; left:20%""><b>Vous</b></br></br></br></br>v</div><div style = ""font-size:300%; text-align: center; position:fixed; top:70%; right:20%; left:20%""><b>Pink</b></br></br></br></br>b</div><div style = ""font-size:300%; text-align: center; position:fixed; top:70%; right:20%""><b>Adonia</b></br></br></br></br>n</div>","v","","","","","","","carré","22","Vous","Vous","true","Self","","","","","","","","","","","","",""
"","sat_feedback","","html-keyboard-response","86","386747","0.0-17.0-2.21","Pink","Adonia","","","","","","","","","","","","","","","","","","","","","null","<p style = 'font-size: 300%; color:green'>Correct!</p>","null","","","","","","","","","","","","","","","","","","","","","","","","",""
"","sat_fixationcross","","html-keyboard-response","87","387263","0.0-17.0-0.22","Pink","Adonia","","","","","","","","","","","","","","","","","","","","","null","<div  style='font-size:500%; position:fixed; text-align: center; top:50%; bottom:50%; right:20%; left:20%'>+</div>","null","","","","","","500","","","","","","","","","","","","","","","","","","",""
"","sat_practicetrial","","html-keyboard-response","88","387826","0.0-17.0-1.22","Pink","Adonia","","","","","","","","","","","","","","","","","","","","","562","<div style='bottom:60%; right:20%; left:20%; position:fixed'><img src=https://realitybending.github.io/IllusionGameSelfAssociation/experiment/SelfAssociation/stimuli/triangle.png height=20%></img></div><div  style='font-size:500%; position:fixed; text-align: center; top:50%; bottom:50%; right:20%; left:20%'>+</div><div style = ""font-size:300%; text-align: center; position:fixed; top:70%; left:20%""><b>Vous</b></br></br></br></br>v</div><div style = ""font-size:300%; text-align: center; position:fixed; top:70%; right:20%; left:20%""><b>Pink</b></br></br></br></br>b</div><div style = ""font-size:300%; text-align: center; position:fixed; top:70%; right:20%""><b>Adonia</b></br></br></br></br>n</div>","b","","","","","","","triangle","23","Pink","Pink","true","Stranger","","","","","","","","","","","","",""
"","sat_feedback","","html-keyboard-response","89","388337","0.0-17.0-2.22","Pink","Adonia","","","","","","","","","","","","","","","","","","","","","null","<p style = 'font-size: 300%; color:green'>Correct!</p>","null","","","","","","","","","","","","","","","","","","","","","","","","",""
"","sat_fixationcross","","html-keyboard-response","90","388839","0.0-17.0-0.23","Pink","Adonia","","","","","","","","","","","","","","","","","","","","","null","<div  style='font-size:500%; position:fixed; text-align: center; top:50%; bottom:50%; right:20%; left:20%'>+</div>","null","","","","","","500","","","","","","","","","","","","","","","","","","",""
"","sat_practicetrial","","html-keyboard-response","91","389339","0.0-17.0-1.23","Pink","Adonia","","","","","","","","","","","","","","","","","","","","","499","<div style='bottom:60%; right:20%; left:20%; position:fixed'><img src=https://realitybending.github.io/IllusionGameSelfAssociation/experiment/SelfAssociation/stimuli/cercle.png height=20%></img></div><div  style='font-size:500%; position:fixed; text-align: center; top:50%; bottom:50%; right:20%; left:20%'>+</div><div style = ""font-size:300%; text-align: center; position:fixed; top:70%; left:20%""><b>Vous</b></br></br></br></br>v</div><div style = ""font-size:300%; text-align: center; position:fixed; top:70%; right:20%; left:20%""><b>Pink</b></br></br></br></br>b</div><div style = ""font-size:300%; text-align: center; position:fixed; top:70%; right:20%""><b>Adonia</b></br></br></br></br>n</div>","n","","","","","","","cercle","24","Adonia","Adonia","true","Friend","","","","","","","","","","","","",""
"","sat_feedback","","html-keyboard-response","92","389855","0.0-17.0-2.23","Pink","Adonia","","","","","","","","","","","","","","","","","","","","","null","<p style = 'font-size: 300%; color:green'>Correct!</p>","null","","","","","","","","","","","","","","","","","","","","","","","","",""
"","sat_fixationcross","","html-keyboard-response","93","390356","0.0-17.0-0.24","Pink","Adonia","","","","","","","","","","","","","","","","","","","","","null","<div  style='font-size:500%; position:fixed; text-align: center; top:50%; bottom:50%; right:20%; left:20%'>+</div>","null","","","","","","500","","","","","","","","","","","","","","","","","","",""
"","sat_practicetrial","","html-keyboard-response","94","390703","0.0-17.0-1.24","Pink","Adonia","","","","","","","","","","","","","","","","","","","","","346","<div style='bottom:60%; right:20%; left:20%; position:fixed'><img src=https://realitybending.github.io/IllusionGameSelfAssociation/experiment/SelfAssociation/stimuli/cercle.png height=20%></img></div><div  style='font-size:500%; position:fixed; text-align: center; top:50%; bottom:50%; right:20%; left:20%'>+</div><div style = ""font-size:300%; text-align: center; position:fixed; top:70%; left:20%""><b>Vous</b></br></br></br></br>v</div><div style = ""font-size:300%; text-align: center; position:fixed; top:70%; right:20%; left:20%""><b>Pink</b></br></br></br></br>b</div><div style = ""font-size:300%; text-align: center; position:fixed; top:70%; right:20%""><b>Adonia</b></br></br></br></br>n</div>","n","","","","","","","cercle","25","Adonia","Adonia","true","Friend","","","","","","","","","","","","",""
"","sat_feedback","","html-keyboard-response","95","391204","0.0-17.0-2.24","Pink","Adonia","","","","","","","","","","","","","","","","","","","","","null","<p style = 'font-size: 300%; color:green'>Correct!</p>","null","","","","","","","","","","","","","","","","","","","","","","","","",""
"","sat_fixationcross","","html-keyboard-response","96","391720","0.0-17.0-0.25","Pink","Adonia","","","","","","","","","","","","","","","","","","","","","null","<div  style='font-size:500%; position:fixed; text-align: center; top:50%; bottom:50%; right:20%; left:20%'>+</div>","null","","","","","","500","","","","","","","","","","","","","","","","","","",""
"","sat_practicetrial","","html-keyboard-response","97","392023","0.0-17.0-1.25","Pink","Adonia","","","","","","","","","","","","","","","","","","","","","301","<div style='bottom:60%; right:20%; left:20%; position:fixed'><img src=https://realitybending.github.io/IllusionGameSelfAssociation/experiment/SelfAssociation/stimuli/cercle.png height=20%></img></div><div  style='font-size:500%; position:fixed; text-align: center; top:50%; bottom:50%; right:20%; left:20%'>+</div><div style = ""font-size:300%; text-align: center; position:fixed; top:70%; left:20%""><b>Vous</b></br></br></br></br>v</div><div style = ""font-size:300%; text-align: center; position:fixed; top:70%; right:20%; left:20%""><b>Pink</b></br></br></br></br>b</div><div style = ""font-size:300%; text-align: center; position:fixed; top:70%; right:20%""><b>Adonia</b></br></br></br></br>n</div>","n","","","","","","","cercle","26","Adonia","Adonia","true","Friend","","","","","","","","","","","","",""
"","sat_feedback","","html-keyboard-response","98","392525","0.0-17.0-2.25","Pink","Adonia","","","","","","","","","","","","","","","","","","","","","null","<p style = 'font-size: 300%; color:green'>Correct!</p>","null","","","","","","","","","","","","","","","","","","","","","","","","",""
"","sat_fixationcross","","html-keyboard-response","99","393036","0.0-17.0-0.26","Pink","Adonia","","","","","","","","","","","","","","","","","","","","","null","<div  style='font-size:500%; position:fixed; text-align: center; top:50%; bottom:50%; right:20%; left:20%'>+</div>","null","","","","","","500","","","","","","","","","","","","","","","","","","",""
"","sat_practicetrial","","html-keyboard-response","100","393547","0.0-17.0-1.26","Pink","Adonia","","","","","","","","","","","","","","","","","","","","","510","<div style='bottom:60%; right:20%; left:20%; position:fixed'><img src=https://realitybending.github.io/IllusionGameSelfAssociation/experiment/SelfAssociation/stimuli/carré.png height=20%></img></div><div  style='font-size:500%; position:fixed; text-align: center; top:50%; bottom:50%; right:20%; left:20%'>+</div><div style = ""font-size:300%; text-align: center; position:fixed; top:70%; left:20%""><b>Vous</b></br></br></br></br>v</div><div style = ""font-size:300%; text-align: center; position:fixed; top:70%; right:20%; left:20%""><b>Pink</b></br></br></br></br>b</div><div style = ""font-size:300%; text-align: center; position:fixed; top:70%; right:20%""><b>Adonia</b></br></br></br></br>n</div>","v","","","","","","","carré","27","Vous","Vous","true","Self","","","","","","","","","","","","",""
"","sat_feedback","","html-keyboard-response","101","394063","0.0-17.0-2.26","Pink","Adonia","","","","","","","","","","","","","","","","","","","","","null","<p style = 'font-size: 300%; color:green'>Correct!</p>","null","","","","","","","","","","","","","","","","","","","","","","","","",""
"","sat_fixationcross","","html-keyboard-response","102","394580","0.0-17.0-0.27","Pink","Adonia","","","","","","","","","","","","","","","","","","","","","null","<div  style='font-size:500%; position:fixed; text-align: center; top:50%; bottom:50%; right:20%; left:20%'>+</div>","null","","","","","","500","","","","","","","","","","","","","","","","","","",""
"","sat_practicetrial","","html-keyboard-response","103","395152","0.0-17.0-1.27","Pink","Adonia","","","","","","","","","","","","","","","","","","","","","571","<div style='bottom:60%; right:20%; left:20%; position:fixed'><img src=https://realitybending.github.io/IllusionGameSelfAssociation/experiment/SelfAssociation/stimuli/cercle.png height=20%></img></div><div  style='font-size:500%; position:fixed; text-align: center; top:50%; bottom:50%; right:20%; left:20%'>+</div><div style = ""font-size:300%; text-align: center; position:fixed; top:70%; left:20%""><b>Vous</b></br></br></br></br>v</div><div style = ""font-size:300%; text-align: center; position:fixed; top:70%; right:20%; left:20%""><b>Pink</b></br></br></br></br>b</div><div style = ""font-size:300%; text-align: center; position:fixed; top:70%; right:20%""><b>Adonia</b></br></br></br></br>n</div>","n","","","","","","","cercle","28","Adonia","Adonia","true","Friend","","","","","","","","","","","","",""
"","sat_feedback","","html-keyboard-response","104","395657","0.0-17.0-2.27","Pink","Adonia","","","","","","","","","","","","","","","","","","","","","null","<p style = 'font-size: 300%; color:green'>Correct!</p>","null","","","","","","","","","","","","","","","","","","","","","","","","",""
"","sat_fixationcross","","html-keyboard-response","105","396174","0.0-17.0-0.28","Pink","Adonia","","","","","","","","","","","","","","","","","","","","","null","<div  style='font-size:500%; position:fixed; text-align: center; top:50%; bottom:50%; right:20%; left:20%'>+</div>","null","","","","","","500","","","","","","","","","","","","","","","","","","",""
"","sat_practicetrial","","html-keyboard-response","106","396983","0.0-17.0-1.28","Pink","Adonia","","","","","","","","","","","","","","","","","","","","","807","<div style='bottom:60%; right:20%; left:20%; position:fixed'><img src=https://realitybending.github.io/IllusionGameSelfAssociation/experiment/SelfAssociation/stimuli/carré.png height=20%></img></div><div  style='font-size:500%; position:fixed; text-align: center; top:50%; bottom:50%; right:20%; left:20%'>+</div><div style = ""font-size:300%; text-align: center; position:fixed; top:70%; left:20%""><b>Vous</b></br></br></br></br>v</div><div style = ""font-size:300%; text-align: center; position:fixed; top:70%; right:20%; left:20%""><b>Pink</b></br></br></br></br>b</div><div style = ""font-size:300%; text-align: center; position:fixed; top:70%; right:20%""><b>Adonia</b></br></br></br></br>n</div>","v","","","","","","","carré","29","Vous","Vous","true","Self","","","","","","","","","","","","",""
"","sat_feedback","","html-keyboard-response","107","397489","0.0-17.0-2.28","Pink","Adonia","","","","","","","","","","","","","","","","","","","","","null","<p style = 'font-size: 300%; color:green'>Correct!</p>","null","","","","","","","","","","","","","","","","","","","","","","","","",""
"","sat_fixationcross","","html-keyboard-response","108","398003","0.0-17.0-0.29","Pink","Adonia","","","","","","","","","","","","","","","","","","","","","null","<div  style='font-size:500%; position:fixed; text-align: center; top:50%; bottom:50%; right:20%; left:20%'>+</div>","null","","","","","","500","","","","","","","","","","","","","","","","","","",""
"","sat_practicetrial","","html-keyboard-response","109","398582","0.0-17.0-1.29","Pink","Adonia","","","","","","","","","","","","","","","","","","","","","578","<div style='bottom:60%; right:20%; left:20%; position:fixed'><img src=https://realitybending.github.io/IllusionGameSelfAssociation/experiment/SelfAssociation/stimuli/triangle.png height=20%></img></div><div  style='font-size:500%; position:fixed; text-align: center; top:50%; bottom:50%; right:20%; left:20%'>+</div><div style = ""font-size:300%; text-align: center; position:fixed; top:70%; left:20%""><b>Vous</b></br></br></br></br>v</div><div style = ""font-size:300%; text-align: center; position:fixed; top:70%; right:20%; left:20%""><b>Pink</b></br></br></br></br>b</div><div style = ""font-size:300%; text-align: center; position:fixed; top:70%; right:20%""><b>Adonia</b></br></br></br></br>n</div>","b","","","","","","","triangle","30","Pink","Pink","true","Stranger","","","","","","","","","","","","",""
"","sat_feedback","","html-keyboard-response","110","399084","0.0-17.0-2.29","Pink","Adonia","","","","","","","","","","","","","","","","","","","","","null","<p style = 'font-size: 300%; color:green'>Correct!</p>","null","","","","","","","","","","","","","","","","","","","","","","","","",""
"","sat_fixationcross","","html-keyboard-response","111","399596","0.0-17.0-0.30","Pink","Adonia","","","","","","","","","","","","","","","","","","","","","null","<div  style='font-size:500%; position:fixed; text-align: center; top:50%; bottom:50%; right:20%; left:20%'>+</div>","null","","","","","","500","","","","","","","","","","","","","","","","","","",""
"","sat_practicetrial","","html-keyboard-response","112","399982","0.0-17.0-1.30","Pink","Adonia","","","","","","","","","","","","","","","","","","","","","385","<div style='bottom:60%; right:20%; left:20%; position:fixed'><img src=https://realitybending.github.io/IllusionGameSelfAssociation/experiment/SelfAssociation/stimuli/triangle.png height=20%></img></div><div  style='font-size:500%; position:fixed; text-align: center; top:50%; bottom:50%; right:20%; left:20%'>+</div><div style = ""font-size:300%; text-align: center; position:fixed; top:70%; left:20%""><b>Vous</b></br></br></br></br>v</div><div style = ""font-size:300%; text-align: center; position:fixed; top:70%; right:20%; left:20%""><b>Pink</b></br></br></br></br>b</div><div style = ""font-size:300%; text-align: center; position:fixed; top:70%; right:20%""><b>Adonia</b></br></br></br></br>n</div>","b","","","","","","","triangle","31","Pink","Pink","true","Stranger","","","","","","","","","","","","",""
"","sat_feedback","","html-keyboard-response","113","400485","0.0-17.0-2.30","Pink","Adonia","","","","","","","","","","","","","","","","","","","","","null","<p style = 'font-size: 300%; color:green'>Correct!</p>","null","","","","","","","","","","","","","","","","","","","","","","","","",""
"","sat_fixationcross","","html-keyboard-response","114","400987","0.0-17.0-0.31","Pink","Adonia","","","","","","","","","","","","","","","","","","","","","null","<div  style='font-size:500%; position:fixed; text-align: center; top:50%; bottom:50%; right:20%; left:20%'>+</div>","null","","","","","","500","","","","","","","","","","","","","","","","","","",""
"","sat_practicetrial","","html-keyboard-response","115","401472","0.0-17.0-1.31","Pink","Adonia","","","","","","","","","","","","","","","","","","","","","484","<div style='bottom:60%; right:20%; left:20%; position:fixed'><img src=https://realitybending.github.io/IllusionGameSelfAssociation/experiment/SelfAssociation/stimuli/cercle.png height=20%></img></div><div  style='font-size:500%; position:fixed; text-align: center; top:50%; bottom:50%; right:20%; left:20%'>+</div><div style = ""font-size:300%; text-align: center; position:fixed; top:70%; left:20%""><b>Vous</b></br></br></br></br>v</div><div style = ""font-size:300%; text-align: center; position:fixed; top:70%; right:20%; left:20%""><b>Pink</b></br></br></br></br>b</div><div style = ""font-size:300%; text-align: center; position:fixed; top:70%; right:20%""><b>Adonia</b></br></br></br></br>n</div>","n","","","","","","","cercle","32","Adonia","Adonia","true","Friend","","","","","","","","","","","","",""
"","sat_feedback","","html-keyboard-response","116","401973","0.0-17.0-2.31","Pink","Adonia","","","","","","","","","","","","","","","","","","","","","null","<p style = 'font-size: 300%; color:green'>Correct!</p>","null","","","","","","","","","","","","","","","","","","","","","","","","",""
"","sat_fixationcross","","html-keyboard-response","117","402477","0.0-17.0-0.32","Pink","Adonia","","","","","","","","","","","","","","","","","","","","","null","<div  style='font-size:500%; position:fixed; text-align: center; top:50%; bottom:50%; right:20%; left:20%'>+</div>","null","","","","","","500","","","","","","","","","","","","","","","","","","",""
"","sat_practicetrial","","html-keyboard-response","118","403206","0.0-17.0-1.32","Pink","Adonia","","","","","","","","","","","","","","","","","","","","","727","<div style='bottom:60%; right:20%; left:20%; position:fixed'><img src=https://realitybending.github.io/IllusionGameSelfAssociation/experiment/SelfAssociation/stimuli/triangle.png height=20%></img></div><div  style='font-size:500%; position:fixed; text-align: center; top:50%; bottom:50%; right:20%; left:20%'>+</div><div style = ""font-size:300%; text-align: center; position:fixed; top:70%; left:20%""><b>Vous</b></br></br></br></br>v</div><div style = ""font-size:300%; text-align: center; position:fixed; top:70%; right:20%; left:20%""><b>Pink</b></br></br></br></br>b</div><div style = ""font-size:300%; text-align: center; position:fixed; top:70%; right:20%""><b>Adonia</b></br></br></br></br>n</div>","b","","","","","","","triangle","33","Pink","Pink","true","Stranger","","","","","","","","","","","","",""
"","sat_feedback","","html-keyboard-response","119","403707","0.0-17.0-2.32","Pink","Adonia","","","","","","","","","","","","","","","","","","","","","null","<p style = 'font-size: 300%; color:green'>Correct!</p>","null","","","","","","","","","","","","","","","","","","","","","","","","",""
"","sat_fixationcross","","html-keyboard-response","120","404209","0.0-17.0-0.33","Pink","Adonia","","","","","","","","","","","","","","","","","","","","","null","<div  style='font-size:500%; position:fixed; text-align: center; top:50%; bottom:50%; right:20%; left:20%'>+</div>","null","","","","","","500","","","","","","","","","","","","","","","","","","",""
"","sat_practicetrial","","html-keyboard-response","121","404747","0.0-17.0-1.33","Pink","Adonia","","","","","","","","","","","","","","","","","","","","","537","<div style='bottom:60%; right:20%; left:20%; position:fixed'><img src=https://realitybending.github.io/IllusionGameSelfAssociation/experiment/SelfAssociation/stimuli/carré.png height=20%></img></div><div  style='font-size:500%; position:fixed; text-align: center; top:50%; bottom:50%; right:20%; left:20%'>+</div><div style = ""font-size:300%; text-align: center; position:fixed; top:70%; left:20%""><b>Vous</b></br></br></br></br>v</div><div style = ""font-size:300%; text-align: center; position:fixed; top:70%; right:20%; left:20%""><b>Pink</b></br></br></br></br>b</div><div style = ""font-size:300%; text-align: center; position:fixed; top:70%; right:20%""><b>Adonia</b></br></br></br></br>n</div>","v","","","","","","","carré","34","Vous","Vous","true","Self","","","","","","","","","","","","",""
"","sat_feedback","","html-keyboard-response","122","405248","0.0-17.0-2.33","Pink","Adonia","","","","","","","","","","","","","","","","","","","","","null","<p style = 'font-size: 300%; color:green'>Correct!</p>","null","","","","","","","","","","","","","","","","","","","","","","","","",""
"","sat_fixationcross","","html-keyboard-response","123","405752","0.0-17.0-0.34","Pink","Adonia","","","","","","","","","","","","","","","","","","","","","null","<div  style='font-size:500%; position:fixed; text-align: center; top:50%; bottom:50%; right:20%; left:20%'>+</div>","null","","","","","","500","","","","","","","","","","","","","","","","","","",""
"","sat_practicetrial","","html-keyboard-response","124","406206","0.0-17.0-1.34","Pink","Adonia","","","","","","","","","","","","","","","","","","","","","452","<div style='bottom:60%; right:20%; left:20%; position:fixed'><img src=https://realitybending.github.io/IllusionGameSelfAssociation/experiment/SelfAssociation/stimuli/cercle.png height=20%></img></div><div  style='font-size:500%; position:fixed; text-align: center; top:50%; bottom:50%; right:20%; left:20%'>+</div><div style = ""font-size:300%; text-align: center; position:fixed; top:70%; left:20%""><b>Vous</b></br></br></br></br>v</div><div style = ""font-size:300%; text-align: center; position:fixed; top:70%; right:20%; left:20%""><b>Pink</b></br></br></br></br>b</div><div style = ""font-size:300%; text-align: center; position:fixed; top:70%; right:20%""><b>Adonia</b></br></br></br></br>n</div>","n","","","","","","","cercle","35","Adonia","Adonia","true","Friend","","","","","","","","","","","","",""
"","sat_feedback","","html-keyboard-response","125","406710","0.0-17.0-2.34","Pink","Adonia","","","","","","","","","","","","","","","","","","","","","null","<p style = 'font-size: 300%; color:green'>Correct!</p>","null","","","","","","","","","","","","","","","","","","","","","","","","",""
"","sat_fixationcross","","html-keyboard-response","126","407212","0.0-17.0-0.35","Pink","Adonia","","","","","","","","","","","","","","","","","","","","","null","<div  style='font-size:500%; position:fixed; text-align: center; top:50%; bottom:50%; right:20%; left:20%'>+</div>","null","","","","","","500","","","","","","","","","","","","","","","","","","",""
"","sat_practicetrial","","html-keyboard-response","127","407581","0.0-17.0-1.35","Pink","Adonia","","","","","","","","","","","","","","","","","","","","","368","<div style='bottom:60%; right:20%; left:20%; position:fixed'><img src=https://realitybending.github.io/IllusionGameSelfAssociation/experiment/SelfAssociation/stimuli/cercle.png height=20%></img></div><div  style='font-size:500%; position:fixed; text-align: center; top:50%; bottom:50%; right:20%; left:20%'>+</div><div style = ""font-size:300%; text-align: center; position:fixed; top:70%; left:20%""><b>Vous</b></br></br></br></br>v</div><div style = ""font-size:300%; text-align: center; position:fixed; top:70%; right:20%; left:20%""><b>Pink</b></br></br></br></br>b</div><div style = ""font-size:300%; text-align: center; position:fixed; top:70%; right:20%""><b>Adonia</b></br></br></br></br>n</div>","n","","","","","","","cercle","36","Adonia","Adonia","true","Friend","","","","","","","","","","","","",""
"","sat_feedback","","html-keyboard-response","128","408088","0.0-17.0-2.35","Pink","Adonia","","","","","","","","","","","","","","","","","","","","","null","<p style = 'font-size: 300%; color:green'>Correct!</p>","null","","","","","","","","","","","","","","","","","","","","","","","","",""
"","sat_fixationcross","","html-keyboard-response","129","408604","0.0-17.0-0.36","Pink","Adonia","","","","","","","","","","","","","","","","","","","","","null","<div  style='font-size:500%; position:fixed; text-align: center; top:50%; bottom:50%; right:20%; left:20%'>+</div>","null","","","","","","500","","","","","","","","","","","","","","","","","","",""
"","sat_practicetrial","","html-keyboard-response","130","409057","0.0-17.0-1.36","Pink","Adonia","","","","","","","","","","","","","","","","","","","","","451","<div style='bottom:60%; right:20%; left:20%; position:fixed'><img src=https://realitybending.github.io/IllusionGameSelfAssociation/experiment/SelfAssociation/stimuli/carré.png height=20%></img></div><div  style='font-size:500%; position:fixed; text-align: center; top:50%; bottom:50%; right:20%; left:20%'>+</div><div style = ""font-size:300%; text-align: center; position:fixed; top:70%; left:20%""><b>Vous</b></br></br></br></br>v</div><div style = ""font-size:300%; text-align: center; position:fixed; top:70%; right:20%; left:20%""><b>Pink</b></br></br></br></br>b</div><div style = ""font-size:300%; text-align: center; position:fixed; top:70%; right:20%""><b>Adonia</b></br></br></br></br>n</div>","v","","","","","","","carré","37","Vous","Vous","true","Self","","","","","","","","","","","","",""
"","sat_feedback","","html-keyboard-response","131","409558","0.0-17.0-2.36","Pink","Adonia","","","","","","","","","","","","","","","","","","","","","null","<p style = 'font-size: 300%; color:green'>Correct!</p>","null","","","","","","","","","","","","","","","","","","","","","","","","",""
"","sat_fixationcross","","html-keyboard-response","132","410074","0.0-17.0-0.37","Pink","Adonia","","","","","","","","","","","","","","","","","","","","","null","<div  style='font-size:500%; position:fixed; text-align: center; top:50%; bottom:50%; right:20%; left:20%'>+</div>","null","","","","","","500","","","","","","","","","","","","","","","","","","",""
"","sat_practicetrial","","html-keyboard-response","133","410445","0.0-17.0-1.37","Pink","Adonia","","","","","","","","","","","","","","","","","","","","","370","<div style='bottom:60%; right:20%; left:20%; position:fixed'><img src=https://realitybending.github.io/IllusionGameSelfAssociation/experiment/SelfAssociation/stimuli/triangle.png height=20%></img></div><div  style='font-size:500%; position:fixed; text-align: center; top:50%; bottom:50%; right:20%; left:20%'>+</div><div style = ""font-size:300%; text-align: center; position:fixed; top:70%; left:20%""><b>Vous</b></br></br></br></br>v</div><div style = ""font-size:300%; text-align: center; position:fixed; top:70%; right:20%; left:20%""><b>Pink</b></br></br></br></br>b</div><div style = ""font-size:300%; text-align: center; position:fixed; top:70%; right:20%""><b>Adonia</b></br></br></br></br>n</div>","b","","","","","","","triangle","38","Pink","Pink","true","Stranger","","","","","","","","","","","","",""
"","sat_feedback","","html-keyboard-response","134","410949","0.0-17.0-2.37","Pink","Adonia","","","","","","","","","","","","","","","","","","","","","null","<p style = 'font-size: 300%; color:green'>Correct!</p>","null","","","","","","","","","","","","","","","","","","","","","","","","",""
"","sat_fixationcross","","html-keyboard-response","135","411452","0.0-17.0-0.38","Pink","Adonia","","","","","","","","","","","","","","","","","","","","","null","<div  style='font-size:500%; position:fixed; text-align: center; top:50%; bottom:50%; right:20%; left:20%'>+</div>","null","","","","","","500","","","","","","","","","","","","","","","","","","",""
"","sat_practicetrial","","html-keyboard-response","136","411944","0.0-17.0-1.38","Pink","Adonia","","","","","","","","","","","","","","","","","","","","","491","<div style='bottom:60%; right:20%; left:20%; position:fixed'><img src=https://realitybending.github.io/IllusionGameSelfAssociation/experiment/SelfAssociation/stimuli/triangle.png height=20%></img></div><div  style='font-size:500%; position:fixed; text-align: center; top:50%; bottom:50%; right:20%; left:20%'>+</div><div style = ""font-size:300%; text-align: center; position:fixed; top:70%; left:20%""><b>Vous</b></br></br></br></br>v</div><div style = ""font-size:300%; text-align: center; position:fixed; top:70%; right:20%; left:20%""><b>Pink</b></br></br></br></br>b</div><div style = ""font-size:300%; text-align: center; position:fixed; top:70%; right:20%""><b>Adonia</b></br></br></br></br>n</div>","b","","","","","","","triangle","39","Pink","Pink","true","Stranger","","","","","","","","","","","","",""
"","sat_practice_end","","html-button-response","137","415643","0.0-18.0","Pink","Adonia","","","","","","","","","","","","","","","","","","","","","3696","<h1>Bravo!</h1><p>Vous avez terminé l'entraînement.</p>","0","","","","","","","","","","","","","","","","","","","","","","","","",""
"","matching_instructions_fr","","html-button-response","138","508947","0.0-19.0","Pink","Adonia","","","","","","","","","","","","","","","","","","","","","93310","<h1>Instructions</h1><p>Dans cette phase du jeu, les formes précédentes vont être ré-associées aux personnes.</p><p>Vous devez décider aussi rapidement et précisément que possible si la forme présentée correspond à la personne nouvellement associée.</p><p>Si la paire forme-personne est <b>correcte</b>, appuyez sur <b>'i'</b>.</p><p>Si la paire forme-personne est <b>incorrecte</b>, appuyez sur <b>'e'</b></p><br><p>Bonne chance!</p>","0","","","","","","","","","","","","","","","","","","","","","","","","",""
"","SAT_assignmentscreen","","html-button-response","139","517777","0.0-20.0","Pink","Adonia","","","","","","","","","","","","","","","","","","","","","8826","<h1>Instructions</h1><div id ='align-middle'><b>Vous</b> sera représenté par un  <b>cercle</b>  <img src= https://realitybending.github.io/IllusionGameSelfAssociation/experiment/SelfAssociation/stimuli/cercle.png height=40></img></div><br><div id ='align-middle'><b>Pink</b> sera représenté par un  <b>carré</b>  <img src= https://realitybending.github.io/IllusionGameSelfAssociation/experiment/SelfAssociation/stimuli/carré.png height=40></img></div><br><div id = 'align-middle'><b>Adonia</b> sera représenté par un  <b>triangle</b>  <img src= https://realitybending.github.io/IllusionGameSelfAssociation/experiment/SelfAssociation/stimuli/triangle.png height=40></img></div><br>","0","","","","","","","","","","","","","","","","","","","","","","","","",""
"","sat_fixationcross","","html-keyboard-response","140","518292","0.0-21.0-0.0","Pink","Adonia","","","","","","","","","","","","","","","","","","","","","null","<div  style='font-size:500%; position:fixed; text-align: center; top:50%; bottom:50%; right:20%; left:20%'>+</div>","null","","","","","","500","","","","","","","","","","","","","","","","","","",""
"","sat_trial","","html-keyboard-response","141","519058","0.0-21.0-1.0","Pink","Adonia","","","","","","","","","","","","","","","","","","","","","764","<div style='bottom:60%; right:20%; left:20%; position:fixed'><img src=https://realitybending.github.io/IllusionGameSelfAssociation/experiment/SelfAssociation/stimuli/carré.png height=20%></img></div><div  style='font-size:500%; position:fixed; text-align: center; top:50%; bottom:50%; right:20%; left:20%'>+</div><div style = ""font-size:300%; text-align: center; position:fixed; top:70%; right:20%; left:20%""><b>Pink</div>","e","","","","","","","carré","1","mismatch","match","false","","Stranger","1","","","","","","","","","","",""
"","sat_feedback","","html-keyboard-response","142","519565","0.0-21.0-2.0","Pink","Adonia","","","","","","","","","","","","","","","","","","","","","null","<p style = 'font-size: 300%; color:red'>Incorrect!</p>","null","","","","","","","","","","","","","","","","","","","","","","","","",""
"","sat_fixationcross","","html-keyboard-response","143","520079","0.0-21.0-0.1","Pink","Adonia","","","","","","","","","","","","","","","","","","","","","null","<div  style='font-size:500%; position:fixed; text-align: center; top:50%; bottom:50%; right:20%; left:20%'>+</div>","null","","","","","","500","","","","","","","","","","","","","","","","","","",""
"","sat_trial","","html-keyboard-response","144","520647","0.0-21.0-1.1","Pink","Adonia","","","","","","","","","","","","","","","","","","","","","568","<div style='bottom:60%; right:20%; left:20%; position:fixed'><img src=https://realitybending.github.io/IllusionGameSelfAssociation/experiment/SelfAssociation/stimuli/cercle.png height=20%></img></div><div  style='font-size:500%; position:fixed; text-align: center; top:50%; bottom:50%; right:20%; left:20%'>+</div><div style = ""font-size:300%; text-align: center; position:fixed; top:70%; right:20%; left:20%""><b>Pink</div>","e","","","","","","","cercle","2","mismatch","mismatch","true","","Stranger","1","","","","","","","","","","",""
"","sat_feedback","","html-keyboard-response","145","521158","0.0-21.0-2.1","Pink","Adonia","","","","","","","","","","","","","","","","","","","","","null","<p style = 'font-size: 300%; color:green'>Correct!</p>","null","","","","","","","","","","","","","","","","","","","","","","","","",""
"","sat_fixationcross","","html-keyboard-response","146","521659","0.0-21.0-0.2","Pink","Adonia","","","","","","","","","","","","","","","","","","","","","null","<div  style='font-size:500%; position:fixed; text-align: center; top:50%; bottom:50%; right:20%; left:20%'>+</div>","null","","","","","","500","","","","","","","","","","","","","","","","","","",""
"","sat_trial","","html-keyboard-response","147","522372","0.0-21.0-1.2","Pink","Adonia","","","","","","","","","","","","","","","","","","","","","712","<div style='bottom:60%; right:20%; left:20%; position:fixed'><img src=https://realitybending.github.io/IllusionGameSelfAssociation/experiment/SelfAssociation/stimuli/carré.png height=20%></img></div><div  style='font-size:500%; position:fixed; text-align: center; top:50%; bottom:50%; right:20%; left:20%'>+</div><div style = ""font-size:300%; text-align: center; position:fixed; top:70%; right:20%; left:20%""><b>Adonia</div>","e","","","","","","","carré","3","mismatch","mismatch","true","","Friend","1","","","","","","","","","","",""
"","sat_feedback","","html-keyboard-response","148","522879","0.0-21.0-2.2","Pink","Adonia","","","","","","","","","","","","","","","","","","","","","null","<p style = 'font-size: 300%; color:green'>Correct!</p>","null","","","","","","","","","","","","","","","","","","","","","","","","",""
"","sat_fixationcross","","html-keyboard-response","149","523395","0.0-21.0-0.3","Pink","Adonia","","","","","","","","","","","","","","","","","","","","","null","<div  style='font-size:500%; position:fixed; text-align: center; top:50%; bottom:50%; right:20%; left:20%'>+</div>","null","","","","","","500","","","","","","","","","","","","","","","","","","",""
"","sat_trial","","html-keyboard-response","150","524016","0.0-21.0-1.3","Pink","Adonia","","","","","","","","","","","","","","","","","","","","","621","<div style='bottom:60%; right:20%; left:20%; position:fixed'><img src=https://realitybending.github.io/IllusionGameSelfAssociation/experiment/SelfAssociation/stimuli/carré.png height=20%></img></div><div  style='font-size:500%; position:fixed; text-align: center; top:50%; bottom:50%; right:20%; left:20%'>+</div><div style = ""font-size:300%; text-align: center; position:fixed; top:70%; right:20%; left:20%""><b>Vous</div>","i","","","","","","","carré","4","match","mismatch","false","","Self","1","","","","","","","","","","",""
"","sat_feedback","","html-keyboard-response","151","524521","0.0-21.0-2.3","Pink","Adonia","","","","","","","","","","","","","","","","","","","","","null","<p style = 'font-size: 300%; color:red'>Incorrect!</p>","null","","","","","","","","","","","","","","","","","","","","","","","","",""
"","sat_fixationcross","","html-keyboard-response","152","525023","0.0-21.0-0.4","Pink","Adonia","","","","","","","","","","","","","","","","","","","","","null","<div  style='font-size:500%; position:fixed; text-align: center; top:50%; bottom:50%; right:20%; left:20%'>+</div>","null","","","","","","500","","","","","","","","","","","","","","","","","","",""
"","sat_trial","","html-keyboard-response","153","525882","0.0-21.0-1.4","Pink","Adonia","","","","","","","","","","","","","","","","","","","","","858","<div style='bottom:60%; right:20%; left:20%; position:fixed'><img src=https://realitybending.github.io/IllusionGameSelfAssociation/experiment/SelfAssociation/stimuli/cercle.png height=20%></img></div><div  style='font-size:500%; position:fixed; text-align: center; top:50%; bottom:50%; right:20%; left:20%'>+</div><div style = ""font-size:300%; text-align: center; position:fixed; top:70%; right:20%; left:20%""><b>Pink</div>","e","","","","","","","cercle","5","mismatch","mismatch","true","","Stranger","1","","","","","","","","","","",""
"","sat_feedback","","html-keyboard-response","154","526398","0.0-21.0-2.4","Pink","Adonia","","","","","","","","","","","","","","","","","","","","","null","<p style = 'font-size: 300%; color:green'>Correct!</p>","null","","","","","","","","","","","","","","","","","","","","","","","","",""
"","sat_fixationcross","","html-keyboard-response","155","526901","0.0-21.0-0.5","Pink","Adonia","","","","","","","","","","","","","","","","","","","","","null","<div  style='font-size:500%; position:fixed; text-align: center; top:50%; bottom:50%; right:20%; left:20%'>+</div>","null","","","","","","500","","","","","","","","","","","","","","","","","","",""
"","sat_trial","","html-keyboard-response","156","527665","0.0-21.0-1.5","Pink","Adonia","","","","","","","","","","","","","","","","","","","","","763","<div style='bottom:60%; right:20%; left:20%; position:fixed'><img src=https://realitybending.github.io/IllusionGameSelfAssociation/experiment/SelfAssociation/stimuli/carré.png height=20%></img></div><div  style='font-size:500%; position:fixed; text-align: center; top:50%; bottom:50%; right:20%; left:20%'>+</div><div style = ""font-size:300%; text-align: center; position:fixed; top:70%; right:20%; left:20%""><b>Vous</div>","e","","","","","","","carré","6","mismatch","mismatch","true","","Self","1","","","","","","","","","","",""
"","sat_feedback","","html-keyboard-response","157","528181","0.0-21.0-2.5","Pink","Adonia","","","","","","","","","","","","","","","","","","","","","null","<p style = 'font-size: 300%; color:green'>Correct!</p>","null","","","","","","","","","","","","","","","","","","","","","","","","",""
"","sat_fixationcross","","html-keyboard-response","158","528682","0.0-21.0-0.6","Pink","Adonia","","","","","","","","","","","","","","","","","","","","","null","<div  style='font-size:500%; position:fixed; text-align: center; top:50%; bottom:50%; right:20%; left:20%'>+</div>","null","","","","","","500","","","","","","","","","","","","","","","","","","",""
"","sat_trial","","html-keyboard-response","159","529497","0.0-21.0-1.6","Pink","Adonia","","","","","","","","","","","","","","","","","","","","","813","<div style='bottom:60%; right:20%; left:20%; position:fixed'><img src=https://realitybending.github.io/IllusionGameSelfAssociation/experiment/SelfAssociation/stimuli/carré.png height=20%></img></div><div  style='font-size:500%; position:fixed; text-align: center; top:50%; bottom:50%; right:20%; left:20%'>+</div><div style = ""font-size:300%; text-align: center; position:fixed; top:70%; right:20%; left:20%""><b>Adonia</div>","i","","","","","","","carré","7","match","mismatch","false","","Friend","1","","","","","","","","","","",""
"","sat_feedback","","html-keyboard-response","160","530011","0.0-21.0-2.6","Pink","Adonia","","","","","","","","","","","","","","","","","","","","","null","<p style = 'font-size: 300%; color:red'>Incorrect!</p>","null","","","","","","","","","","","","","","","","","","","","","","","","",""
"","sat_fixationcross","","html-keyboard-response","161","530526","0.0-21.0-0.7","Pink","Adonia","","","","","","","","","","","","","","","","","","","","","null","<div  style='font-size:500%; position:fixed; text-align: center; top:50%; bottom:50%; right:20%; left:20%'>+</div>","null","","","","","","500","","","","","","","","","","","","","","","","","","",""
"","sat_trial","","html-keyboard-response","162","530982","0.0-21.0-1.7","Pink","Adonia","","","","","","","","","","","","","","","","","","","","","455","<div style='bottom:60%; right:20%; left:20%; position:fixed'><img src=https://realitybending.github.io/IllusionGameSelfAssociation/experiment/SelfAssociation/stimuli/triangle.png height=20%></img></div><div  style='font-size:500%; position:fixed; text-align: center; top:50%; bottom:50%; right:20%; left:20%'>+</div><div style = ""font-size:300%; text-align: center; position:fixed; top:70%; right:20%; left:20%""><b>Adonia</div>","i","","","","","","","triangle","8","match","match","true","","Friend","1","","","","","","","","","","",""
"","sat_feedback","","html-keyboard-response","163","531494","0.0-21.0-2.7","Pink","Adonia","","","","","","","","","","","","","","","","","","","","","null","<p style = 'font-size: 300%; color:green'>Correct!</p>","null","","","","","","","","","","","","","","","","","","","","","","","","",""
"","sat_fixationcross","","html-keyboard-response","164","532000","0.0-21.0-0.8","Pink","Adonia","","","","","","","","","","","","","","","","","","","","","null","<div  style='font-size:500%; position:fixed; text-align: center; top:50%; bottom:50%; right:20%; left:20%'>+</div>","null","","","","","","500","","","","","","","","","","","","","","","","","","",""
"","sat_trial","","html-keyboard-response","165","532567","0.0-21.0-1.8","Pink","Adonia","","","","","","","","","","","","","","","","","","","","","565","<div style='bottom:60%; right:20%; left:20%; position:fixed'><img src=https://realitybending.github.io/IllusionGameSelfAssociation/experiment/SelfAssociation/stimuli/carré.png height=20%></img></div><div  style='font-size:500%; position:fixed; text-align: center; top:50%; bottom:50%; right:20%; left:20%'>+</div><div style = ""font-size:300%; text-align: center; position:fixed; top:70%; right:20%; left:20%""><b>Adonia</div>","e","","","","","","","carré","9","mismatch","mismatch","true","","Friend","1","","","","","","","","","","",""
"","sat_feedback","","html-keyboard-response","166","533075","0.0-21.0-2.8","Pink","Adonia","","","","","","","","","","","","","","","","","","","","","null","<p style = 'font-size: 300%; color:green'>Correct!</p>","null","","","","","","","","","","","","","","","","","","","","","","","","",""
"","sat_fixationcross","","html-keyboard-response","167","533590","0.0-21.0-0.9","Pink","Adonia","","","","","","","","","","","","","","","","","","","","","null","<div  style='font-size:500%; position:fixed; text-align: center; top:50%; bottom:50%; right:20%; left:20%'>+</div>","null","","","","","","500","","","","","","","","","","","","","","","","","","",""
"","sat_trial","","html-keyboard-response","168","534248","0.0-21.0-1.9","Pink","Adonia","","","","","","","","","","","","","","","","","","","","","657","<div style='bottom:60%; right:20%; left:20%; position:fixed'><img src=https://realitybending.github.io/IllusionGameSelfAssociation/experiment/SelfAssociation/stimuli/cercle.png height=20%></img></div><div  style='font-size:500%; position:fixed; text-align: center; top:50%; bottom:50%; right:20%; left:20%'>+</div><div style = ""font-size:300%; text-align: center; position:fixed; top:70%; right:20%; left:20%""><b>Pink</div>","i","","","","","","","cercle","10","match","mismatch","false","","Stranger","1","","","","","","","","","","",""
"","sat_feedback","","html-keyboard-response","169","534749","0.0-21.0-2.9","Pink","Adonia","","","","","","","","","","","","","","","","","","","","","null","<p style = 'font-size: 300%; color:red'>Incorrect!</p>","null","","","","","","","","","","","","","","","","","","","","","","","","",""
"","sat_fixationcross","","html-keyboard-response","170","535265","0.0-21.0-0.10","Pink","Adonia","","","","","","","","","","","","","","","","","","","","","null","<div  style='font-size:500%; position:fixed; text-align: center; top:50%; bottom:50%; right:20%; left:20%'>+</div>","null","","","","","","500","","","","","","","","","","","","","","","","","","",""
"","sat_trial","","html-keyboard-response","171","535764","0.0-21.0-1.10","Pink","Adonia","","","","","","","","","","","","","","","","","","","","","498","<div style='bottom:60%; right:20%; left:20%; position:fixed'><img src=https://realitybending.github.io/IllusionGameSelfAssociation/experiment/SelfAssociation/stimuli/cercle.png height=20%></img></div><div  style='font-size:500%; position:fixed; text-align: center; top:50%; bottom:50%; right:20%; left:20%'>+</div><div style = ""font-size:300%; text-align: center; position:fixed; top:70%; right:20%; left:20%""><b>Adonia</div>","i","","","","","","","cercle","11","match","mismatch","false","","Friend","1","","","","","","","","","","",""
"","sat_feedback","","html-keyboard-response","172","536266","0.0-21.0-2.10","Pink","Adonia","","","","","","","","","","","","","","","","","","","","","null","<p style = 'font-size: 300%; color:red'>Incorrect!</p>","null","","","","","","","","","","","","","","","","","","","","","","","","",""
"","sat_fixationcross","","html-keyboard-response","173","536780","0.0-21.0-0.11","Pink","Adonia","","","","","","","","","","","","","","","","","","","","","null","<div  style='font-size:500%; position:fixed; text-align: center; top:50%; bottom:50%; right:20%; left:20%'>+</div>","null","","","","","","500","","","","","","","","","","","","","","","","","","",""
"","sat_trial","","html-keyboard-response","174","537566","0.0-21.0-1.11","Pink","Adonia","","","","","","","","","","","","","","","","","","","","","785","<div style='bottom:60%; right:20%; left:20%; position:fixed'><img src=https://realitybending.github.io/IllusionGameSelfAssociation/experiment/SelfAssociation/stimuli/triangle.png height=20%></img></div><div  style='font-size:500%; position:fixed; text-align: center; top:50%; bottom:50%; right:20%; left:20%'>+</div><div style = ""font-size:300%; text-align: center; position:fixed; top:70%; right:20%; left:20%""><b>Adonia</div>","i","","","","","","","triangle","12","match","match","true","","Friend","1","","","","","","","","","","",""
"","sat_feedback","","html-keyboard-response","175","538080","0.0-21.0-2.11","Pink","Adonia","","","","","","","","","","","","","","","","","","","","","null","<p style = 'font-size: 300%; color:green'>Correct!</p>","null","","","","","","","","","","","","","","","","","","","","","","","","",""
"","sat_fixationcross","","html-keyboard-response","176","538591","0.0-21.0-0.12","Pink","Adonia","","","","","","","","","","","","","","","","","","","","","null","<div  style='font-size:500%; position:fixed; text-align: center; top:50%; bottom:50%; right:20%; left:20%'>+</div>","null","","","","","","500","","","","","","","","","","","","","","","","","","",""
"","sat_trial","","html-keyboard-response","177","539119","0.0-21.0-1.12","Pink","Adonia","","","","","","","","","","","","","","","","","","","","","527","<div style='bottom:60%; right:20%; left:20%; position:fixed'><img src=https://realitybending.github.io/IllusionGameSelfAssociation/experiment/SelfAssociation/stimuli/carré.png height=20%></img></div><div  style='font-size:500%; position:fixed; text-align: center; top:50%; bottom:50%; right:20%; left:20%'>+</div><div style = ""font-size:300%; text-align: center; position:fixed; top:70%; right:20%; left:20%""><b>Adonia</div>","e","","","","","","","carré","13","mismatch","mismatch","true","","Friend","1","","","","","","","","","","",""
"","sat_feedback","","html-keyboard-response","178","539623","0.0-21.0-2.12","Pink","Adonia","","","","","","","","","","","","","","","","","","","","","null","<p style = 'font-size: 300%; color:green'>Correct!</p>","null","","","","","","","","","","","","","","","","","","","","","","","","",""
"","sat_fixationcross","","html-keyboard-response","179","540134","0.0-21.0-0.13","Pink","Adonia","","","","","","","","","","","","","","","","","","","","","null","<div  style='font-size:500%; position:fixed; text-align: center; top:50%; bottom:50%; right:20%; left:20%'>+</div>","null","","","","","","500","","","","","","","","","","","","","","","","","","",""
"","sat_trial","","html-keyboard-response","180","540681","0.0-21.0-1.13","Pink","Adonia","","","","","","","","","","","","","","","","","","","","","546","<div style='bottom:60%; right:20%; left:20%; position:fixed'><img src=https://realitybending.github.io/IllusionGameSelfAssociation/experiment/SelfAssociation/stimuli/triangle.png height=20%></img></div><div  style='font-size:500%; position:fixed; text-align: center; top:50%; bottom:50%; right:20%; left:20%'>+</div><div style = ""font-size:300%; text-align: center; position:fixed; top:70%; right:20%; left:20%""><b>Vous</div>","i","","","","","","","triangle","14","match","mismatch","false","","Self","1","","","","","","","","","","",""
"","sat_feedback","","html-keyboard-response","181","541197","0.0-21.0-2.13","Pink","Adonia","","","","","","","","","","","","","","","","","","","","","null","<p style = 'font-size: 300%; color:red'>Incorrect!</p>","null","","","","","","","","","","","","","","","","","","","","","","","","",""
"","sat_fixationcross","","html-keyboard-response","182","541701","0.0-21.0-0.14","Pink","Adonia","","","","","","","","","","","","","","","","","","","","","null","<div  style='font-size:500%; position:fixed; text-align: center; top:50%; bottom:50%; right:20%; left:20%'>+</div>","null","","","","","","500","","","","","","","","","","","","","","","","","","",""
"","sat_trial","","html-keyboard-response","183","542668","0.0-21.0-1.14","Pink","Adonia","","","","","","","","","","","","","","","","","","","","","966","<div style='bottom:60%; right:20%; left:20%; position:fixed'><img src=https://realitybending.github.io/IllusionGameSelfAssociation/experiment/SelfAssociation/stimuli/cercle.png height=20%></img></div><div  style='font-size:500%; position:fixed; text-align: center; top:50%; bottom:50%; right:20%; left:20%'>+</div><div style = ""font-size:300%; text-align: center; position:fixed; top:70%; right:20%; left:20%""><b>Pink</div>","e","","","","","","","cercle","15","mismatch","mismatch","true","","Stranger","1","","","","","","","","","","",""
"","sat_feedback","","html-keyboard-response","184","543174","0.0-21.0-2.14","Pink","Adonia","","","","","","","","","","","","","","","","","","","","","null","<p style = 'font-size: 300%; color:green'>Correct!</p>","null","","","","","","","","","","","","","","","","","","","","","","","","",""
"","sat_fixationcross","","html-keyboard-response","185","543687","0.0-21.0-0.15","Pink","Adonia","","","","","","","","","","","","","","","","","","","","","null","<div  style='font-size:500%; position:fixed; text-align: center; top:50%; bottom:50%; right:20%; left:20%'>+</div>","null","","","","","","500","","","","","","","","","","","","","","","","","","",""
"","sat_trial","","html-keyboard-response","186","544456","0.0-21.0-1.15","Pink","Adonia","","","","","","","","","","","","","","","","","","","","","769","<div style='bottom:60%; right:20%; left:20%; position:fixed'><img src=https://realitybending.github.io/IllusionGameSelfAssociation/experiment/SelfAssociation/stimuli/carré.png height=20%></img></div><div  style='font-size:500%; position:fixed; text-align: center; top:50%; bottom:50%; right:20%; left:20%'>+</div><div style = ""font-size:300%; text-align: center; position:fixed; top:70%; right:20%; left:20%""><b>Pink</div>","i","","","","","","","carré","16","match","match","true","","Stranger","1","","","","","","","","","","",""
"","sat_feedback","","html-keyboard-response","187","544969","0.0-21.0-2.15","Pink","Adonia","","","","","","","","","","","","","","","","","","","","","null","<p style = 'font-size: 300%; color:green'>Correct!</p>","null","","","","","","","","","","","","","","","","","","","","","","","","",""
"","sat_fixationcross","","html-keyboard-response","188","545471","0.0-21.0-0.16","Pink","Adonia","","","","","","","","","","","","","","","","","","","","","null","<div  style='font-size:500%; position:fixed; text-align: center; top:50%; bottom:50%; right:20%; left:20%'>+</div>","null","","","","","","500","","","","","","","","","","","","","","","","","","",""
"","sat_trial","","html-keyboard-response","189","545994","0.0-21.0-1.16","Pink","Adonia","","","","","","","","","","","","","","","","","","","","","522","<div style='bottom:60%; right:20%; left:20%; position:fixed'><img src=https://realitybending.github.io/IllusionGameSelfAssociation/experiment/SelfAssociation/stimuli/triangle.png height=20%></img></div><div  style='font-size:500%; position:fixed; text-align: center; top:50%; bottom:50%; right:20%; left:20%'>+</div><div style = ""font-size:300%; text-align: center; position:fixed; top:70%; right:20%; left:20%""><b>Adonia</div>","i","","","","","","","triangle","17","match","match","true","","Friend","1","","","","","","","","","","",""
"","sat_feedback","","html-keyboard-response","190","546501","0.0-21.0-2.16","Pink","Adonia","","","","","","","","","","","","","","","","","","","","","null","<p style = 'font-size: 300%; color:green'>Correct!</p>","null","","","","","","","","","","","","","","","","","","","","","","","","",""
"","sat_fixationcross","","html-keyboard-response","191","547003","0.0-21.0-0.17","Pink","Adonia","","","","","","","","","","","","","","","","","","","","","null","<div  style='font-size:500%; position:fixed; text-align: center; top:50%; bottom:50%; right:20%; left:20%'>+</div>","null","","","","","","500","","","","","","","","","","","","","","","","","","",""
