"success","screen","group","trial_type","trial_index","time_elapsed","internal_node_id","label_stranger","label_friend","width","height","webaudio","browser","browser_version","mobile","os","fullscreen","vsync_rate","webcam","microphone","date","time","screen_height","screen_width","researcher","sona_id","prolific_id","study_id","session_id","rt","stimulus","response","question_order","timeout","failed_images","failed_audio","failed_video","trial_duration","shape","trial_number","answer","answer_correct","correct","condition","label_condition","block_number","file","block","correct_response","Illusion_Type","Illusion_Strength","Illusion_Difference","isi","fixation_cross","type","illusion_strength","illusion_difference"
"true","fullscreen","control_T0","fullscreen","0","8948","0.0-0.0","Elvis","Jesus","","","","","","","","","","","","","","","","","","","","","","","","","","","","","","","","","","","","","","","","","","","","","","","",""
"","browser_info","","browser-check","1","9954","0.0-1.0","Elvis","Jesus","1920","953","true","chrome","122.0.0","false","Windows 10","true","59.99","false","false","18/03/2024","16:13:36","953","1920","","","602b8155a5c8a32bbac81763","65e72b0a27a1d8bd15a851fe","65f84a2f30d288587fb511c9","","","","","","","","","","","","","","","","","","","","","","","","","","","",""
"","consent","","html-button-response","2","23307","0.0-2.0","Elvis","Jesus","","","","","","","","","","","","","","","","","","","","","13352","<img src='https://u-paris.fr/wp-content/uploads/2022/03/Universite_Paris-Cite-logo.jpeg' width='300px' align='right'/><br><br><br><br><br><h1>Consent form</h1><p align='left'>In this study, you will have to complete two questionnaires and two tasks.</p><p align='left'>The questionnaires and tasks must be completed alone. <b>Your participation is confidential and your answers will be anonymized.</b> We do not collect your IP address or any other identifying information.</p><p align='left'>Your data are very valuable for us. In participating, you will contribute to scientific progress. <b>In participating, you accept to follow the instructions and to supply honest answers.</b> If you don't want to participate, you can simply close your browser.</p><p align='left'><br><sub><sup>If you have any question regarding the study, you can email Baptiste Fauvel (baptiste.fauvel@u-paris.fr). This study has been reviewed and approved by the ethical committee of the University of Paris .</sup></sub></p>","0","","","","","","","","","","","","","","","","","","","","","","","","",""
"","demographics_1","","survey-multi-choice","3","48288","0.0-3.0-0.0","Elvis","Jesus","","","","","","","","","","","","","","","","","","","","","24979","","{""sex"":""Male"",""student"":""No"",""education"":""High school"",""language"":""fluent""}","[0,1,2,3]","","","","","","","","","","","","","","","","","","","","","","","",""
"","demographics_2","","survey-text","4","58011","0.0-3.0-1.0","Elvis","Jesus","","","","","","","","","","","","","","","","","","","","","9719","","{""age"":""28"",""country"":""South Africa""}","","","","","","","","","","","","","","","","","","","","","","","","",""
"","","","html-button-response","5","67603","0.0-4.0","Elvis","Jesus","","","","","","","","","","","","","","","","","","","","","9591","<p style=""font-size:18px; color:black;"">Have you <b>ever</b> been diagnosed with any of the following pathologies ?</p>","1","","","","","","","","","","","","","","","","","","","","","","","","",""
"","","","html-button-response","6","69774","0.0-6.0","Elvis","Jesus","","","","","","","","","","","","","","","","","","","","","2170","<p style=""font-size:18px; color:black;"">Are you <b>currently</b> diagnosed with any of the following pathologies ?</p>","1","","","","","","","","","","","","","","","","","","","","","","","","",""
"","","","html-button-response","7","74414","0.0-8.0","Elvis","Jesus","","","","","","","","","","","","","","","","","","","","","4639","<p style=""font-size:18px; color:black;"">Do you meditate regularly? E.g. at least once a week?</p>","0","","","","","","","","","","","","","","","","","","","","","","","","",""
"","","","survey-text","8","91995","0.0-9.0-0.0","Elvis","Jesus","","","","","","","","","","","","","","","","","","","","","17578","","{""Q0"":""7""}","","","","","","","","","","","","","","","","","","","","","","","","",""
"","","","survey-text","9","125274","0.0-9.0-1.0","Elvis","Jesus","","","","","","","","","","","","","","","","","","","","","33278","","{""Q0"":""72""}","","","","","","","","","","","","","","","","","","","","","","","","",""
"","","","survey-text","10","144010","0.0-9.0-2.0","Elvis","Jesus","","","","","","","","","","","","","","","","","","","","","18734","","{""Q0"":""30""}","","","","","","","","","","","","","","","","","","","","","","","","",""
"","","","survey-multi-select","11","156226","0.0-9.0-3.0","Elvis","Jesus","","","","","","","","","","","","","","","","","","","","","12213","","{""medTrad"":[""Zen"",""Mindfulness"",""Other""]}","[0]","","","","","","","","","","","","","","","","","","","","","","","",""
"","","","html-button-response","12","161542","0.0-10.0","Elvis","Jesus","","","","","","","","","","","","","","","","","","","","","5313","<p style=""font-size:18px; color:black;"">Have you taken a psychedelic drug in the last 6 months? (E.g. LSD, psilocybin mushrooms, ayahuasca)</p>","1","","","","","","","","","","","","","","","","","","","","","","","","",""
"","","","survey-multi-choice","13","170014","0.0-11.0","Elvis","Jesus","","","","","","","","","","","","","","","","","","","","","8471","","{""psych_freq_english"":""Never""}","[0]","","","","","","","","","","","","","","","","","","","","","","","",""
"true","","","preload","14","170300","0.0-12.0","Elvis","Jesus","","","","","","","","","","","","","","","","","","","","","","","","","false","[]","[]","[]","","","","","","","","","","","","","","","","","","","",""
"","SAT_instructions_general","","html-button-response","15","184894","0.0-13.0","Elvis","Jesus","","","","","","","","","","","","","","","","","","","","","14593","<h1>Shape-Label Association Game</h1><p>In this task, you will be shown some <b>shapes</b> that will be assigned to a <b>label</b> (You, Your Best Friend and a Stranger).</p><p>To personalize this game to your own experience, you will first select who you want the friend and the stranger to be.</p>","0","","","","","","","","","","","","","","","","","","","","","","","","",""
"","SAT_strangerlabel","","survey-multi-choice","16","198489","0.0-14.0","Elvis","Jesus","","","","","","","","","","","","","","","","","","","","","13594","","{""label_stranger"":""Elvis""}","[0]","","","","","","","","","","","","","","","","","","","","","","","",""
"","SAT_friendlabel","","survey-text","17","219734","0.0-15.0","Elvis","Jesus","","","","","","","","","","","","","","","","","","","","","21241","","{""label_friend"":""Jesus""}","","","","","","","","","","","","","","","","","","","","","","","","",""
"","SAT_instructions_practice","","html-button-response","18","269687","0.0-16.0","Elvis","Jesus","","","","","","","","","","","","","","","","","","","","","49951","<h1>Practice</h1><p>Each label (i.e., You, Best Friend, Stranger) will be assigned to a specific shape (circle, square or triangle)</p><p>During the practice phase, you will be presented with one of the shapes above a fixation cross, together with the three labels below the fixation cross.</p><p>Your task is to select the label that corresponds with the presented shape as quickly and accurately as possible</p><p>If the correct label is on the <b>left</b>, press <b>'v'</b>.</p><p>If the correct label is in the <b>middle</b>, press <b>'b'</b>.</p><p>If the correct label is on the <b>right</b>, press <b>'n'</b>.</p><br>","0","","","","","","","","","","","","","","","","","","","","","","","","",""
"","SAT_assignmentscreen","","html-button-response","19","319206","0.0-17.0","Elvis","Jesus","","","","","","","","","","","","","","","","","","","","","49518","<h1>Instructions</h1><div id ='align-middle'><b>You</b> will be represented by a  <b>triangle</b>  <img src= https://realitybending.github.io/IllusionGameSelfAssociation/experiment/SelfAssociation/stimuli/triangle.png height=40></img></div><br><div id ='align-middle'><b>Elvis</b> will be represented by a  <b>circle</b>  <img src= https://realitybending.github.io/IllusionGameSelfAssociation/experiment/SelfAssociation/stimuli/circle.png height=40></img></div><br><div id = 'align-middle'><b>Jesus</b> will be represented by a  <b>square</b>  <img src= https://realitybending.github.io/IllusionGameSelfAssociation/experiment/SelfAssociation/stimuli/square.png height=40></img></div><br>","0","","","","","","","","","","","","","","","","","","","","","","","","",""
"","sat_fixationcross","","html-keyboard-response","20","319714","0.0-18.0-0.0","Elvis","Jesus","","","","","","","","","","","","","","","","","","","","","null","<div  style='font-size:500%; position:fixed; text-align: center; top:50%; bottom:50%; right:20%; left:20%'>+</div>","null","","","","","","500","","","","","","","","","","","","","","","","","","",""
"","sat_practicetrial","","html-keyboard-response","21","325724","0.0-18.0-1.0","Elvis","Jesus","","","","","","","","","","","","","","","","","","","","","null","<div style='bottom:60%; right:20%; left:20%; position:fixed'><img src=https://realitybending.github.io/IllusionGameSelfAssociation/experiment/SelfAssociation/stimuli/triangle.png height=20%></img></div><div  style='font-size:500%; position:fixed; text-align: center; top:50%; bottom:50%; right:20%; left:20%'>+</div><div style = ""font-size:300%; text-align: center; position:fixed; top:70%; left:20%""><b>You</b></br></br></br></br>v</div><div style = ""font-size:300%; text-align: center; position:fixed; top:70%; right:20%; left:20%""><b>Elvis</b></br></br></br></br>b</div><div style = ""font-size:300%; text-align: center; position:fixed; top:70%; right:20%""><b>Jesus</b></br></br></br></br>n</div>","null","","","","","","","triangle","1","null","You","false","Self","","","","","","","","","","","","",""
"","sat_feedback","","html-keyboard-response","22","326238","0.0-18.0-2.0","Elvis","Jesus","","","","","","","","","","","","","","","","","","","","","null","<p style = 'font-size: 300%; color:blue'>Out of Time!</p>","null","","","","","","","","","","","","","","","","","","","","","","","","",""
"","sat_fixationcross","","html-keyboard-response","23","326750","0.0-18.0-0.1","Elvis","Jesus","","","","","","","","","","","","","","","","","","","","","null","<div  style='font-size:500%; position:fixed; text-align: center; top:50%; bottom:50%; right:20%; left:20%'>+</div>","null","","","","","","500","","","","","","","","","","","","","","","","","","",""
"","sat_practicetrial","","html-keyboard-response","24","330811","0.0-18.0-1.1","Elvis","Jesus","","","","","","","","","","","","","","","","","","","","","4060","<div style='bottom:60%; right:20%; left:20%; position:fixed'><img src=https://realitybending.github.io/IllusionGameSelfAssociation/experiment/SelfAssociation/stimuli/circle.png height=20%></img></div><div  style='font-size:500%; position:fixed; text-align: center; top:50%; bottom:50%; right:20%; left:20%'>+</div><div style = ""font-size:300%; text-align: center; position:fixed; top:70%; left:20%""><b>You</b></br></br></br></br>v</div><div style = ""font-size:300%; text-align: center; position:fixed; top:70%; right:20%; left:20%""><b>Elvis</b></br></br></br></br>b</div><div style = ""font-size:300%; text-align: center; position:fixed; top:70%; right:20%""><b>Jesus</b></br></br></br></br>n</div>","n","","","","","","","circle","2","Jesus","Elvis","false","Stranger","","","","","","","","","","","","",""
"","sat_feedback","","html-keyboard-response","25","331315","0.0-18.0-2.1","Elvis","Jesus","","","","","","","","","","","","","","","","","","","","","null","<p style = 'font-size: 300%; color:red'>Incorrect!</p>","null","","","","","","","","","","","","","","","","","","","","","","","","",""
"","sat_fixationcross","","html-keyboard-response","26","331823","0.0-18.0-0.2","Elvis","Jesus","","","","","","","","","","","","","","","","","","","","","null","<div  style='font-size:500%; position:fixed; text-align: center; top:50%; bottom:50%; right:20%; left:20%'>+</div>","null","","","","","","500","","","","","","","","","","","","","","","","","","",""
"","sat_practicetrial","","html-keyboard-response","27","335786","0.0-18.0-1.2","Elvis","Jesus","","","","","","","","","","","","","","","","","","","","","3962","<div style='bottom:60%; right:20%; left:20%; position:fixed'><img src=https://realitybending.github.io/IllusionGameSelfAssociation/experiment/SelfAssociation/stimuli/square.png height=20%></img></div><div  style='font-size:500%; position:fixed; text-align: center; top:50%; bottom:50%; right:20%; left:20%'>+</div><div style = ""font-size:300%; text-align: center; position:fixed; top:70%; left:20%""><b>You</b></br></br></br></br>v</div><div style = ""font-size:300%; text-align: center; position:fixed; top:70%; right:20%; left:20%""><b>Elvis</b></br></br></br></br>b</div><div style = ""font-size:300%; text-align: center; position:fixed; top:70%; right:20%""><b>Jesus</b></br></br></br></br>n</div>","n","","","","","","","square","3","Jesus","Jesus","true","Friend","","","","","","","","","","","","",""
"","sat_feedback","","html-keyboard-response","28","336288","0.0-18.0-2.2","Elvis","Jesus","","","","","","","","","","","","","","","","","","","","","null","<p style = 'font-size: 300%; color:green'>Correct!</p>","null","","","","","","","","","","","","","","","","","","","","","","","","",""
"","sat_fixationcross","","html-keyboard-response","29","336799","0.0-18.0-0.3","Elvis","Jesus","","","","","","","","","","","","","","","","","","","","","null","<div  style='font-size:500%; position:fixed; text-align: center; top:50%; bottom:50%; right:20%; left:20%'>+</div>","null","","","","","","500","","","","","","","","","","","","","","","","","","",""
"","sat_practicetrial","","html-keyboard-response","30","337938","0.0-18.0-1.3","Elvis","Jesus","","","","","","","","","","","","","","","","","","","","","1138","<div style='bottom:60%; right:20%; left:20%; position:fixed'><img src=https://realitybending.github.io/IllusionGameSelfAssociation/experiment/SelfAssociation/stimuli/square.png height=20%></img></div><div  style='font-size:500%; position:fixed; text-align: center; top:50%; bottom:50%; right:20%; left:20%'>+</div><div style = ""font-size:300%; text-align: center; position:fixed; top:70%; left:20%""><b>You</b></br></br></br></br>v</div><div style = ""font-size:300%; text-align: center; position:fixed; top:70%; right:20%; left:20%""><b>Elvis</b></br></br></br></br>b</div><div style = ""font-size:300%; text-align: center; position:fixed; top:70%; right:20%""><b>Jesus</b></br></br></br></br>n</div>","n","","","","","","","square","4","Jesus","Jesus","true","Friend","","","","","","","","","","","","",""
"","sat_feedback","","html-keyboard-response","31","338442","0.0-18.0-2.3","Elvis","Jesus","","","","","","","","","","","","","","","","","","","","","null","<p style = 'font-size: 300%; color:green'>Correct!</p>","null","","","","","","","","","","","","","","","","","","","","","","","","",""
"","sat_fixationcross","","html-keyboard-response","32","338953","0.0-18.0-0.4","Elvis","Jesus","","","","","","","","","","","","","","","","","","","","","null","<div  style='font-size:500%; position:fixed; text-align: center; top:50%; bottom:50%; right:20%; left:20%'>+</div>","null","","","","","","500","","","","","","","","","","","","","","","","","","",""
"","sat_practicetrial","","html-keyboard-response","33","339490","0.0-18.0-1.4","Elvis","Jesus","","","","","","","","","","","","","","","","","","","","","537","<div style='bottom:60%; right:20%; left:20%; position:fixed'><img src=https://realitybending.github.io/IllusionGameSelfAssociation/experiment/SelfAssociation/stimuli/square.png height=20%></img></div><div  style='font-size:500%; position:fixed; text-align: center; top:50%; bottom:50%; right:20%; left:20%'>+</div><div style = ""font-size:300%; text-align: center; position:fixed; top:70%; left:20%""><b>You</b></br></br></br></br>v</div><div style = ""font-size:300%; text-align: center; position:fixed; top:70%; right:20%; left:20%""><b>Elvis</b></br></br></br></br>b</div><div style = ""font-size:300%; text-align: center; position:fixed; top:70%; right:20%""><b>Jesus</b></br></br></br></br>n</div>","n","","","","","","","square","5","Jesus","Jesus","true","Friend","","","","","","","","","","","","",""
"","sat_feedback","","html-keyboard-response","34","339995","0.0-18.0-2.4","Elvis","Jesus","","","","","","","","","","","","","","","","","","","","","null","<p style = 'font-size: 300%; color:green'>Correct!</p>","null","","","","","","","","","","","","","","","","","","","","","","","","",""
"","sat_fixationcross","","html-keyboard-response","35","340505","0.0-18.0-0.5","Elvis","Jesus","","","","","","","","","","","","","","","","","","","","","null","<div  style='font-size:500%; position:fixed; text-align: center; top:50%; bottom:50%; right:20%; left:20%'>+</div>","null","","","","","","500","","","","","","","","","","","","","","","","","","",""
"","sat_practicetrial","","html-keyboard-response","36","341202","0.0-18.0-1.5","Elvis","Jesus","","","","","","","","","","","","","","","","","","","","","697","<div style='bottom:60%; right:20%; left:20%; position:fixed'><img src=https://realitybending.github.io/IllusionGameSelfAssociation/experiment/SelfAssociation/stimuli/circle.png height=20%></img></div><div  style='font-size:500%; position:fixed; text-align: center; top:50%; bottom:50%; right:20%; left:20%'>+</div><div style = ""font-size:300%; text-align: center; position:fixed; top:70%; left:20%""><b>You</b></br></br></br></br>v</div><div style = ""font-size:300%; text-align: center; position:fixed; top:70%; right:20%; left:20%""><b>Elvis</b></br></br></br></br>b</div><div style = ""font-size:300%; text-align: center; position:fixed; top:70%; right:20%""><b>Jesus</b></br></br></br></br>n</div>","b","","","","","","","circle","6","Elvis","Elvis","true","Stranger","","","","","","","","","","","","",""
"","sat_feedback","","html-keyboard-response","37","341707","0.0-18.0-2.5","Elvis","Jesus","","","","","","","","","","","","","","","","","","","","","null","<p style = 'font-size: 300%; color:green'>Correct!</p>","null","","","","","","","","","","","","","","","","","","","","","","","","",""
"","sat_fixationcross","","html-keyboard-response","38","342214","0.0-18.0-0.6","Elvis","Jesus","","","","","","","","","","","","","","","","","","","","","null","<div  style='font-size:500%; position:fixed; text-align: center; top:50%; bottom:50%; right:20%; left:20%'>+</div>","null","","","","","","500","","","","","","","","","","","","","","","","","","",""
"","sat_practicetrial","","html-keyboard-response","39","343506","0.0-18.0-1.6","Elvis","Jesus","","","","","","","","","","","","","","","","","","","","","1291","<div style='bottom:60%; right:20%; left:20%; position:fixed'><img src=https://realitybending.github.io/IllusionGameSelfAssociation/experiment/SelfAssociation/stimuli/square.png height=20%></img></div><div  style='font-size:500%; position:fixed; text-align: center; top:50%; bottom:50%; right:20%; left:20%'>+</div><div style = ""font-size:300%; text-align: center; position:fixed; top:70%; left:20%""><b>You</b></br></br></br></br>v</div><div style = ""font-size:300%; text-align: center; position:fixed; top:70%; right:20%; left:20%""><b>Elvis</b></br></br></br></br>b</div><div style = ""font-size:300%; text-align: center; position:fixed; top:70%; right:20%""><b>Jesus</b></br></br></br></br>n</div>","b","","","","","","","square","7","Elvis","Jesus","false","Friend","","","","","","","","","","","","",""
"","sat_feedback","","html-keyboard-response","40","344007","0.0-18.0-2.6","Elvis","Jesus","","","","","","","","","","","","","","","","","","","","","null","<p style = 'font-size: 300%; color:red'>Incorrect!</p>","null","","","","","","","","","","","","","","","","","","","","","","","","",""
"","sat_fixationcross","","html-keyboard-response","41","344521","0.0-18.0-0.7","Elvis","Jesus","","","","","","","","","","","","","","","","","","","","","null","<div  style='font-size:500%; position:fixed; text-align: center; top:50%; bottom:50%; right:20%; left:20%'>+</div>","null","","","","","","500","","","","","","","","","","","","","","","","","","",""
"","sat_practicetrial","","html-keyboard-response","42","345010","0.0-18.0-1.7","Elvis","Jesus","","","","","","","","","","","","","","","","","","","","","489","<div style='bottom:60%; right:20%; left:20%; position:fixed'><img src=https://realitybending.github.io/IllusionGameSelfAssociation/experiment/SelfAssociation/stimuli/square.png height=20%></img></div><div  style='font-size:500%; position:fixed; text-align: center; top:50%; bottom:50%; right:20%; left:20%'>+</div><div style = ""font-size:300%; text-align: center; position:fixed; top:70%; left:20%""><b>You</b></br></br></br></br>v</div><div style = ""font-size:300%; text-align: center; position:fixed; top:70%; right:20%; left:20%""><b>Elvis</b></br></br></br></br>b</div><div style = ""font-size:300%; text-align: center; position:fixed; top:70%; right:20%""><b>Jesus</b></br></br></br></br>n</div>","n","","","","","","","square","8","Jesus","Jesus","true","Friend","","","","","","","","","","","","",""
"","sat_feedback","","html-keyboard-response","43","345515","0.0-18.0-2.7","Elvis","Jesus","","","","","","","","","","","","","","","","","","","","","null","<p style = 'font-size: 300%; color:green'>Correct!</p>","null","","","","","","","","","","","","","","","","","","","","","","","","",""
"","sat_fixationcross","","html-keyboard-response","44","346023","0.0-18.0-0.8","Elvis","Jesus","","","","","","","","","","","","","","","","","","","","","null","<div  style='font-size:500%; position:fixed; text-align: center; top:50%; bottom:50%; right:20%; left:20%'>+</div>","null","","","","","","500","","","","","","","","","","","","","","","","","","",""
"","sat_practicetrial","","html-keyboard-response","45","346434","0.0-18.0-1.8","Elvis","Jesus","","","","","","","","","","","","","","","","","","","","","411","<div style='bottom:60%; right:20%; left:20%; position:fixed'><img src=https://realitybending.github.io/IllusionGameSelfAssociation/experiment/SelfAssociation/stimuli/triangle.png height=20%></img></div><div  style='font-size:500%; position:fixed; text-align: center; top:50%; bottom:50%; right:20%; left:20%'>+</div><div style = ""font-size:300%; text-align: center; position:fixed; top:70%; left:20%""><b>You</b></br></br></br></br>v</div><div style = ""font-size:300%; text-align: center; position:fixed; top:70%; right:20%; left:20%""><b>Elvis</b></br></br></br></br>b</div><div style = ""font-size:300%; text-align: center; position:fixed; top:70%; right:20%""><b>Jesus</b></br></br></br></br>n</div>","v","","","","","","","triangle","9","You","You","true","Self","","","","","","","","","","","","",""
"","sat_feedback","","html-keyboard-response","46","346938","0.0-18.0-2.8","Elvis","Jesus","","","","","","","","","","","","","","","","","","","","","null","<p style = 'font-size: 300%; color:green'>Correct!</p>","null","","","","","","","","","","","","","","","","","","","","","","","","",""
"","sat_fixationcross","","html-keyboard-response","47","347451","0.0-18.0-0.9","Elvis","Jesus","","","","","","","","","","","","","","","","","","","","","null","<div  style='font-size:500%; position:fixed; text-align: center; top:50%; bottom:50%; right:20%; left:20%'>+</div>","null","","","","","","500","","","","","","","","","","","","","","","","","","",""
"","sat_practicetrial","","html-keyboard-response","48","347810","0.0-18.0-1.9","Elvis","Jesus","","","","","","","","","","","","","","","","","","","","","359","<div style='bottom:60%; right:20%; left:20%; position:fixed'><img src=https://realitybending.github.io/IllusionGameSelfAssociation/experiment/SelfAssociation/stimuli/triangle.png height=20%></img></div><div  style='font-size:500%; position:fixed; text-align: center; top:50%; bottom:50%; right:20%; left:20%'>+</div><div style = ""font-size:300%; text-align: center; position:fixed; top:70%; left:20%""><b>You</b></br></br></br></br>v</div><div style = ""font-size:300%; text-align: center; position:fixed; top:70%; right:20%; left:20%""><b>Elvis</b></br></br></br></br>b</div><div style = ""font-size:300%; text-align: center; position:fixed; top:70%; right:20%""><b>Jesus</b></br></br></br></br>n</div>","v","","","","","","","triangle","10","You","You","true","Self","","","","","","","","","","","","",""
"","sat_feedback","","html-keyboard-response","49","348319","0.0-18.0-2.9","Elvis","Jesus","","","","","","","","","","","","","","","","","","","","","null","<p style = 'font-size: 300%; color:green'>Correct!</p>","null","","","","","","","","","","","","","","","","","","","","","","","","",""
"","sat_fixationcross","","html-keyboard-response","50","348828","0.0-18.0-0.10","Elvis","Jesus","","","","","","","","","","","","","","","","","","","","","null","<div  style='font-size:500%; position:fixed; text-align: center; top:50%; bottom:50%; right:20%; left:20%'>+</div>","null","","","","","","500","","","","","","","","","","","","","","","","","","",""
"","sat_practicetrial","","html-keyboard-response","51","349170","0.0-18.0-1.10","Elvis","Jesus","","","","","","","","","","","","","","","","","","","","","341","<div style='bottom:60%; right:20%; left:20%; position:fixed'><img src=https://realitybending.github.io/IllusionGameSelfAssociation/experiment/SelfAssociation/stimuli/triangle.png height=20%></img></div><div  style='font-size:500%; position:fixed; text-align: center; top:50%; bottom:50%; right:20%; left:20%'>+</div><div style = ""font-size:300%; text-align: center; position:fixed; top:70%; left:20%""><b>You</b></br></br></br></br>v</div><div style = ""font-size:300%; text-align: center; position:fixed; top:70%; right:20%; left:20%""><b>Elvis</b></br></br></br></br>b</div><div style = ""font-size:300%; text-align: center; position:fixed; top:70%; right:20%""><b>Jesus</b></br></br></br></br>n</div>","v","","","","","","","triangle","11","You","You","true","Self","","","","","","","","","","","","",""
"","sat_feedback","","html-keyboard-response","52","349679","0.0-18.0-2.10","Elvis","Jesus","","","","","","","","","","","","","","","","","","","","","null","<p style = 'font-size: 300%; color:green'>Correct!</p>","null","","","","","","","","","","","","","","","","","","","","","","","","",""
"","sat_fixationcross","","html-keyboard-response","53","350191","0.0-18.0-0.11","Elvis","Jesus","","","","","","","","","","","","","","","","","","","","","null","<div  style='font-size:500%; position:fixed; text-align: center; top:50%; bottom:50%; right:20%; left:20%'>+</div>","null","","","","","","500","","","","","","","","","","","","","","","","","","",""
"","sat_practicetrial","","html-keyboard-response","54","352002","0.0-18.0-1.11","Elvis","Jesus","","","","","","","","","","","","","","","","","","","","","1811","<div style='bottom:60%; right:20%; left:20%; position:fixed'><img src=https://realitybending.github.io/IllusionGameSelfAssociation/experiment/SelfAssociation/stimuli/square.png height=20%></img></div><div  style='font-size:500%; position:fixed; text-align: center; top:50%; bottom:50%; right:20%; left:20%'>+</div><div style = ""font-size:300%; text-align: center; position:fixed; top:70%; left:20%""><b>You</b></br></br></br></br>v</div><div style = ""font-size:300%; text-align: center; position:fixed; top:70%; right:20%; left:20%""><b>Elvis</b></br></br></br></br>b</div><div style = ""font-size:300%; text-align: center; position:fixed; top:70%; right:20%""><b>Jesus</b></br></br></br></br>n</div>","n","","","","","","","square","12","Jesus","Jesus","true","Friend","","","","","","","","","","","","",""
"","sat_feedback","","html-keyboard-response","55","352507","0.0-18.0-2.11","Elvis","Jesus","","","","","","","","","","","","","","","","","","","","","null","<p style = 'font-size: 300%; color:green'>Correct!</p>","null","","","","","","","","","","","","","","","","","","","","","","","","",""
"","sat_fixationcross","","html-keyboard-response","56","353019","0.0-18.0-0.12","Elvis","Jesus","","","","","","","","","","","","","","","","","","","","","null","<div  style='font-size:500%; position:fixed; text-align: center; top:50%; bottom:50%; right:20%; left:20%'>+</div>","null","","","","","","500","","","","","","","","","","","","","","","","","","",""
"","sat_practicetrial","","html-keyboard-response","57","353458","0.0-18.0-1.12","Elvis","Jesus","","","","","","","","","","","","","","","","","","","","","438","<div style='bottom:60%; right:20%; left:20%; position:fixed'><img src=https://realitybending.github.io/IllusionGameSelfAssociation/experiment/SelfAssociation/stimuli/circle.png height=20%></img></div><div  style='font-size:500%; position:fixed; text-align: center; top:50%; bottom:50%; right:20%; left:20%'>+</div><div style = ""font-size:300%; text-align: center; position:fixed; top:70%; left:20%""><b>You</b></br></br></br></br>v</div><div style = ""font-size:300%; text-align: center; position:fixed; top:70%; right:20%; left:20%""><b>Elvis</b></br></br></br></br>b</div><div style = ""font-size:300%; text-align: center; position:fixed; top:70%; right:20%""><b>Jesus</b></br></br></br></br>n</div>","b","","","","","","","circle","13","Elvis","Elvis","true","Stranger","","","","","","","","","","","","",""
"","sat_feedback","","html-keyboard-response","58","353960","0.0-18.0-2.12","Elvis","Jesus","","","","","","","","","","","","","","","","","","","","","null","<p style = 'font-size: 300%; color:green'>Correct!</p>","null","","","","","","","","","","","","","","","","","","","","","","","","",""
"","sat_fixationcross","","html-keyboard-response","59","354473","0.0-18.0-0.13","Elvis","Jesus","","","","","","","","","","","","","","","","","","","","","null","<div  style='font-size:500%; position:fixed; text-align: center; top:50%; bottom:50%; right:20%; left:20%'>+</div>","null","","","","","","500","","","","","","","","","","","","","","","","","","",""
"","sat_practicetrial","","html-keyboard-response","60","354826","0.0-18.0-1.13","Elvis","Jesus","","","","","","","","","","","","","","","","","","","","","352","<div style='bottom:60%; right:20%; left:20%; position:fixed'><img src=https://realitybending.github.io/IllusionGameSelfAssociation/experiment/SelfAssociation/stimuli/triangle.png height=20%></img></div><div  style='font-size:500%; position:fixed; text-align: center; top:50%; bottom:50%; right:20%; left:20%'>+</div><div style = ""font-size:300%; text-align: center; position:fixed; top:70%; left:20%""><b>You</b></br></br></br></br>v</div><div style = ""font-size:300%; text-align: center; position:fixed; top:70%; right:20%; left:20%""><b>Elvis</b></br></br></br></br>b</div><div style = ""font-size:300%; text-align: center; position:fixed; top:70%; right:20%""><b>Jesus</b></br></br></br></br>n</div>","v","","","","","","","triangle","14","You","You","true","Self","","","","","","","","","","","","",""
"","sat_feedback","","html-keyboard-response","61","355342","0.0-18.0-2.13","Elvis","Jesus","","","","","","","","","","","","","","","","","","","","","null","<p style = 'font-size: 300%; color:green'>Correct!</p>","null","","","","","","","","","","","","","","","","","","","","","","","","",""
"","sat_fixationcross","","html-keyboard-response","62","355854","0.0-18.0-0.14","Elvis","Jesus","","","","","","","","","","","","","","","","","","","","","null","<div  style='font-size:500%; position:fixed; text-align: center; top:50%; bottom:50%; right:20%; left:20%'>+</div>","null","","","","","","500","","","","","","","","","","","","","","","","","","",""
"","sat_practicetrial","","html-keyboard-response","63","356946","0.0-18.0-1.14","Elvis","Jesus","","","","","","","","","","","","","","","","","","","","","1092","<div style='bottom:60%; right:20%; left:20%; position:fixed'><img src=https://realitybending.github.io/IllusionGameSelfAssociation/experiment/SelfAssociation/stimuli/square.png height=20%></img></div><div  style='font-size:500%; position:fixed; text-align: center; top:50%; bottom:50%; right:20%; left:20%'>+</div><div style = ""font-size:300%; text-align: center; position:fixed; top:70%; left:20%""><b>You</b></br></br></br></br>v</div><div style = ""font-size:300%; text-align: center; position:fixed; top:70%; right:20%; left:20%""><b>Elvis</b></br></br></br></br>b</div><div style = ""font-size:300%; text-align: center; position:fixed; top:70%; right:20%""><b>Jesus</b></br></br></br></br>n</div>","n","","","","","","","square","15","Jesus","Jesus","true","Friend","","","","","","","","","","","","",""
"","sat_feedback","","html-keyboard-response","64","357447","0.0-18.0-2.14","Elvis","Jesus","","","","","","","","","","","","","","","","","","","","","null","<p style = 'font-size: 300%; color:green'>Correct!</p>","null","","","","","","","","","","","","","","","","","","","","","","","","",""
"","sat_fixationcross","","html-keyboard-response","65","357958","0.0-18.0-0.15","Elvis","Jesus","","","","","","","","","","","","","","","","","","","","","null","<div  style='font-size:500%; position:fixed; text-align: center; top:50%; bottom:50%; right:20%; left:20%'>+</div>","null","","","","","","500","","","","","","","","","","","","","","","","","","",""
"","sat_practicetrial","","html-keyboard-response","66","359610","0.0-18.0-1.15","Elvis","Jesus","","","","","","","","","","","","","","","","","","","","","1651","<div style='bottom:60%; right:20%; left:20%; position:fixed'><img src=https://realitybending.github.io/IllusionGameSelfAssociation/experiment/SelfAssociation/stimuli/circle.png height=20%></img></div><div  style='font-size:500%; position:fixed; text-align: center; top:50%; bottom:50%; right:20%; left:20%'>+</div><div style = ""font-size:300%; text-align: center; position:fixed; top:70%; left:20%""><b>You</b></br></br></br></br>v</div><div style = ""font-size:300%; text-align: center; position:fixed; top:70%; right:20%; left:20%""><b>Elvis</b></br></br></br></br>b</div><div style = ""font-size:300%; text-align: center; position:fixed; top:70%; right:20%""><b>Jesus</b></br></br></br></br>n</div>","b","","","","","","","circle","16","Elvis","Elvis","true","Stranger","","","","","","","","","","","","",""
"","sat_feedback","","html-keyboard-response","67","360120","0.0-18.0-2.15","Elvis","Jesus","","","","","","","","","","","","","","","","","","","","","null","<p style = 'font-size: 300%; color:green'>Correct!</p>","null","","","","","","","","","","","","","","","","","","","","","","","","",""
"","sat_fixationcross","","html-keyboard-response","68","360633","0.0-18.0-0.16","Elvis","Jesus","","","","","","","","","","","","","","","","","","","","","null","<div  style='font-size:500%; position:fixed; text-align: center; top:50%; bottom:50%; right:20%; left:20%'>+</div>","null","","","","","","500","","","","","","","","","","","","","","","","","","",""
"","sat_practicetrial","","html-keyboard-response","69","361026","0.0-18.0-1.16","Elvis","Jesus","","","","","","","","","","","","","","","","","","","","","393","<div style='bottom:60%; right:20%; left:20%; position:fixed'><img src=https://realitybending.github.io/IllusionGameSelfAssociation/experiment/SelfAssociation/stimuli/square.png height=20%></img></div><div  style='font-size:500%; position:fixed; text-align: center; top:50%; bottom:50%; right:20%; left:20%'>+</div><div style = ""font-size:300%; text-align: center; position:fixed; top:70%; left:20%""><b>You</b></br></br></br></br>v</div><div style = ""font-size:300%; text-align: center; position:fixed; top:70%; right:20%; left:20%""><b>Elvis</b></br></br></br></br>b</div><div style = ""font-size:300%; text-align: center; position:fixed; top:70%; right:20%""><b>Jesus</b></br></br></br></br>n</div>","n","","","","","","","square","17","Jesus","Jesus","true","Friend","","","","","","","","","","","","",""
"","sat_feedback","","html-keyboard-response","70","361531","0.0-18.0-2.16","Elvis","Jesus","","","","","","","","","","","","","","","","","","","","","null","<p style = 'font-size: 300%; color:green'>Correct!</p>","null","","","","","","","","","","","","","","","","","","","","","","","","",""
"","sat_fixationcross","","html-keyboard-response","71","362043","0.0-18.0-0.17","Elvis","Jesus","","","","","","","","","","","","","","","","","","","","","null","<div  style='font-size:500%; position:fixed; text-align: center; top:50%; bottom:50%; right:20%; left:20%'>+</div>","null","","","","","","500","","","","","","","","","","","","","","","","","","",""
"","sat_practicetrial","","html-keyboard-response","72","362826","0.0-18.0-1.17","Elvis","Jesus","","","","","","","","","","","","","","","","","","","","","782","<div style='bottom:60%; right:20%; left:20%; position:fixed'><img src=https://realitybending.github.io/IllusionGameSelfAssociation/experiment/SelfAssociation/stimuli/circle.png height=20%></img></div><div  style='font-size:500%; position:fixed; text-align: center; top:50%; bottom:50%; right:20%; left:20%'>+</div><div style = ""font-size:300%; text-align: center; position:fixed; top:70%; left:20%""><b>You</b></br></br></br></br>v</div><div style = ""font-size:300%; text-align: center; position:fixed; top:70%; right:20%; left:20%""><b>Elvis</b></br></br></br></br>b</div><div style = ""font-size:300%; text-align: center; position:fixed; top:70%; right:20%""><b>Jesus</b></br></br></br></br>n</div>","n","","","","","","","circle","18","Jesus","Elvis","false","Stranger","","","","","","","","","","","","",""
"","sat_feedback","","html-keyboard-response","73","363332","0.0-18.0-2.17","Elvis","Jesus","","","","","","","","","","","","","","","","","","","","","null","<p style = 'font-size: 300%; color:red'>Incorrect!</p>","null","","","","","","","","","","","","","","","","","","","","","","","","",""
"","sat_fixationcross","","html-keyboard-response","74","363842","0.0-18.0-0.18","Elvis","Jesus","","","","","","","","","","","","","","","","","","","","","null","<div  style='font-size:500%; position:fixed; text-align: center; top:50%; bottom:50%; right:20%; left:20%'>+</div>","null","","","","","","500","","","","","","","","","","","","","","","","","","",""
"","sat_practicetrial","","html-keyboard-response","75","364226","0.0-18.0-1.18","Elvis","Jesus","","","","","","","","","","","","","","","","","","","","","383","<div style='bottom:60%; right:20%; left:20%; position:fixed'><img src=https://realitybending.github.io/IllusionGameSelfAssociation/experiment/SelfAssociation/stimuli/circle.png height=20%></img></div><div  style='font-size:500%; position:fixed; text-align: center; top:50%; bottom:50%; right:20%; left:20%'>+</div><div style = ""font-size:300%; text-align: center; position:fixed; top:70%; left:20%""><b>You</b></br></br></br></br>v</div><div style = ""font-size:300%; text-align: center; position:fixed; top:70%; right:20%; left:20%""><b>Elvis</b></br></br></br></br>b</div><div style = ""font-size:300%; text-align: center; position:fixed; top:70%; right:20%""><b>Jesus</b></br></br></br></br>n</div>","b","","","","","","","circle","19","Elvis","Elvis","true","Stranger","","","","","","","","","","","","",""
"","sat_feedback","","html-keyboard-response","76","364738","0.0-18.0-2.18","Elvis","Jesus","","","","","","","","","","","","","","","","","","","","","null","<p style = 'font-size: 300%; color:green'>Correct!</p>","null","","","","","","","","","","","","","","","","","","","","","","","","",""
"","sat_fixationcross","","html-keyboard-response","77","365247","0.0-18.0-0.19","Elvis","Jesus","","","","","","","","","","","","","","","","","","","","","null","<div  style='font-size:500%; position:fixed; text-align: center; top:50%; bottom:50%; right:20%; left:20%'>+</div>","null","","","","","","500","","","","","","","","","","","","","","","","","","",""
"","sat_practicetrial","","html-keyboard-response","78","365698","0.0-18.0-1.19","Elvis","Jesus","","","","","","","","","","","","","","","","","","","","","450","<div style='bottom:60%; right:20%; left:20%; position:fixed'><img src=https://realitybending.github.io/IllusionGameSelfAssociation/experiment/SelfAssociation/stimuli/square.png height=20%></img></div><div  style='font-size:500%; position:fixed; text-align: center; top:50%; bottom:50%; right:20%; left:20%'>+</div><div style = ""font-size:300%; text-align: center; position:fixed; top:70%; left:20%""><b>You</b></br></br></br></br>v</div><div style = ""font-size:300%; text-align: center; position:fixed; top:70%; right:20%; left:20%""><b>Elvis</b></br></br></br></br>b</div><div style = ""font-size:300%; text-align: center; position:fixed; top:70%; right:20%""><b>Jesus</b></br></br></br></br>n</div>","n","","","","","","","square","20","Jesus","Jesus","true","Friend","","","","","","","","","","","","",""
"","sat_feedback","","html-keyboard-response","79","366205","0.0-18.0-2.19","Elvis","Jesus","","","","","","","","","","","","","","","","","","","","","null","<p style = 'font-size: 300%; color:green'>Correct!</p>","null","","","","","","","","","","","","","","","","","","","","","","","","",""
"","sat_fixationcross","","html-keyboard-response","80","366707","0.0-18.0-0.20","Elvis","Jesus","","","","","","","","","","","","","","","","","","","","","null","<div  style='font-size:500%; position:fixed; text-align: center; top:50%; bottom:50%; right:20%; left:20%'>+</div>","null","","","","","","500","","","","","","","","","","","","","","","","","","",""
"","sat_practicetrial","","html-keyboard-response","81","367082","0.0-18.0-1.20","Elvis","Jesus","","","","","","","","","","","","","","","","","","","","","374","<div style='bottom:60%; right:20%; left:20%; position:fixed'><img src=https://realitybending.github.io/IllusionGameSelfAssociation/experiment/SelfAssociation/stimuli/circle.png height=20%></img></div><div  style='font-size:500%; position:fixed; text-align: center; top:50%; bottom:50%; right:20%; left:20%'>+</div><div style = ""font-size:300%; text-align: center; position:fixed; top:70%; left:20%""><b>You</b></br></br></br></br>v</div><div style = ""font-size:300%; text-align: center; position:fixed; top:70%; right:20%; left:20%""><b>Elvis</b></br></br></br></br>b</div><div style = ""font-size:300%; text-align: center; position:fixed; top:70%; right:20%""><b>Jesus</b></br></br></br></br>n</div>","b","","","","","","","circle","21","Elvis","Elvis","true","Stranger","","","","","","","","","","","","",""
"","sat_feedback","","html-keyboard-response","82","367590","0.0-18.0-2.20","Elvis","Jesus","","","","","","","","","","","","","","","","","","","","","null","<p style = 'font-size: 300%; color:green'>Correct!</p>","null","","","","","","","","","","","","","","","","","","","","","","","","",""
"","sat_fixationcross","","html-keyboard-response","83","368104","0.0-18.0-0.21","Elvis","Jesus","","","","","","","","","","","","","","","","","","","","","null","<div  style='font-size:500%; position:fixed; text-align: center; top:50%; bottom:50%; right:20%; left:20%'>+</div>","null","","","","","","500","","","","","","","","","","","","","","","","","","",""
"","sat_practicetrial","","html-keyboard-response","84","368466","0.0-18.0-1.21","Elvis","Jesus","","","","","","","","","","","","","","","","","","","","","361","<div style='bottom:60%; right:20%; left:20%; position:fixed'><img src=https://realitybending.github.io/IllusionGameSelfAssociation/experiment/SelfAssociation/stimuli/circle.png height=20%></img></div><div  style='font-size:500%; position:fixed; text-align: center; top:50%; bottom:50%; right:20%; left:20%'>+</div><div style = ""font-size:300%; text-align: center; position:fixed; top:70%; left:20%""><b>You</b></br></br></br></br>v</div><div style = ""font-size:300%; text-align: center; position:fixed; top:70%; right:20%; left:20%""><b>Elvis</b></br></br></br></br>b</div><div style = ""font-size:300%; text-align: center; position:fixed; top:70%; right:20%""><b>Jesus</b></br></br></br></br>n</div>","b","","","","","","","circle","22","Elvis","Elvis","true","Stranger","","","","","","","","","","","","",""
"","sat_feedback","","html-keyboard-response","85","368971","0.0-18.0-2.21","Elvis","Jesus","","","","","","","","","","","","","","","","","","","","","null","<p style = 'font-size: 300%; color:green'>Correct!</p>","null","","","","","","","","","","","","","","","","","","","","","","","","",""
"","sat_fixationcross","","html-keyboard-response","86","369473","0.0-18.0-0.22","Elvis","Jesus","","","","","","","","","","","","","","","","","","","","","null","<div  style='font-size:500%; position:fixed; text-align: center; top:50%; bottom:50%; right:20%; left:20%'>+</div>","null","","","","","","500","","","","","","","","","","","","","","","","","","",""
"","sat_practicetrial","","html-keyboard-response","87","370002","0.0-18.0-1.22","Elvis","Jesus","","","","","","","","","","","","","","","","","","","","","528","<div style='bottom:60%; right:20%; left:20%; position:fixed'><img src=https://realitybending.github.io/IllusionGameSelfAssociation/experiment/SelfAssociation/stimuli/square.png height=20%></img></div><div  style='font-size:500%; position:fixed; text-align: center; top:50%; bottom:50%; right:20%; left:20%'>+</div><div style = ""font-size:300%; text-align: center; position:fixed; top:70%; left:20%""><b>You</b></br></br></br></br>v</div><div style = ""font-size:300%; text-align: center; position:fixed; top:70%; right:20%; left:20%""><b>Elvis</b></br></br></br></br>b</div><div style = ""font-size:300%; text-align: center; position:fixed; top:70%; right:20%""><b>Jesus</b></br></br></br></br>n</div>","n","","","","","","","square","23","Jesus","Jesus","true","Friend","","","","","","","","","","","","",""
"","sat_feedback","","html-keyboard-response","88","370510","0.0-18.0-2.22","Elvis","Jesus","","","","","","","","","","","","","","","","","","","","","null","<p style = 'font-size: 300%; color:green'>Correct!</p>","null","","","","","","","","","","","","","","","","","","","","","","","","",""
"","sat_fixationcross","","html-keyboard-response","89","371023","0.0-18.0-0.23","Elvis","Jesus","","","","","","","","","","","","","","","","","","","","","null","<div  style='font-size:500%; position:fixed; text-align: center; top:50%; bottom:50%; right:20%; left:20%'>+</div>","null","","","","","","500","","","","","","","","","","","","","","","","","","",""
"","sat_practicetrial","","html-keyboard-response","90","371778","0.0-18.0-1.23","Elvis","Jesus","","","","","","","","","","","","","","","","","","","","","754","<div style='bottom:60%; right:20%; left:20%; position:fixed'><img src=https://realitybending.github.io/IllusionGameSelfAssociation/experiment/SelfAssociation/stimuli/circle.png height=20%></img></div><div  style='font-size:500%; position:fixed; text-align: center; top:50%; bottom:50%; right:20%; left:20%'>+</div><div style = ""font-size:300%; text-align: center; position:fixed; top:70%; left:20%""><b>You</b></br></br></br></br>v</div><div style = ""font-size:300%; text-align: center; position:fixed; top:70%; right:20%; left:20%""><b>Elvis</b></br></br></br></br>b</div><div style = ""font-size:300%; text-align: center; position:fixed; top:70%; right:20%""><b>Jesus</b></br></br></br></br>n</div>","b","","","","","","","circle","24","Elvis","Elvis","true","Stranger","","","","","","","","","","","","",""
"","sat_feedback","","html-keyboard-response","91","372292","0.0-18.0-2.23","Elvis","Jesus","","","","","","","","","","","","","","","","","","","","","null","<p style = 'font-size: 300%; color:green'>Correct!</p>","null","","","","","","","","","","","","","","","","","","","","","","","","",""
"","sat_fixationcross","","html-keyboard-response","92","372806","0.0-18.0-0.24","Elvis","Jesus","","","","","","","","","","","","","","","","","","","","","null","<div  style='font-size:500%; position:fixed; text-align: center; top:50%; bottom:50%; right:20%; left:20%'>+</div>","null","","","","","","500","","","","","","","","","","","","","","","","","","",""
"","sat_practicetrial","","html-keyboard-response","93","373562","0.0-18.0-1.24","Elvis","Jesus","","","","","","","","","","","","","","","","","","","","","755","<div style='bottom:60%; right:20%; left:20%; position:fixed'><img src=https://realitybending.github.io/IllusionGameSelfAssociation/experiment/SelfAssociation/stimuli/triangle.png height=20%></img></div><div  style='font-size:500%; position:fixed; text-align: center; top:50%; bottom:50%; right:20%; left:20%'>+</div><div style = ""font-size:300%; text-align: center; position:fixed; top:70%; left:20%""><b>You</b></br></br></br></br>v</div><div style = ""font-size:300%; text-align: center; position:fixed; top:70%; right:20%; left:20%""><b>Elvis</b></br></br></br></br>b</div><div style = ""font-size:300%; text-align: center; position:fixed; top:70%; right:20%""><b>Jesus</b></br></br></br></br>n</div>","v","","","","","","","triangle","25","You","You","true","Self","","","","","","","","","","","","",""
"","sat_feedback","","html-keyboard-response","94","374072","0.0-18.0-2.24","Elvis","Jesus","","","","","","","","","","","","","","","","","","","","","null","<p style = 'font-size: 300%; color:green'>Correct!</p>","null","","","","","","","","","","","","","","","","","","","","","","","","",""
"","sat_fixationcross","","html-keyboard-response","95","374584","0.0-18.0-0.25","Elvis","Jesus","","","","","","","","","","","","","","","","","","","","","null","<div  style='font-size:500%; position:fixed; text-align: center; top:50%; bottom:50%; right:20%; left:20%'>+</div>","null","","","","","","500","","","","","","","","","","","","","","","","","","",""
"","sat_practicetrial","","html-keyboard-response","96","375274","0.0-18.0-1.25","Elvis","Jesus","","","","","","","","","","","","","","","","","","","","","689","<div style='bottom:60%; right:20%; left:20%; position:fixed'><img src=https://realitybending.github.io/IllusionGameSelfAssociation/experiment/SelfAssociation/stimuli/triangle.png height=20%></img></div><div  style='font-size:500%; position:fixed; text-align: center; top:50%; bottom:50%; right:20%; left:20%'>+</div><div style = ""font-size:300%; text-align: center; position:fixed; top:70%; left:20%""><b>You</b></br></br></br></br>v</div><div style = ""font-size:300%; text-align: center; position:fixed; top:70%; right:20%; left:20%""><b>Elvis</b></br></br></br></br>b</div><div style = ""font-size:300%; text-align: center; position:fixed; top:70%; right:20%""><b>Jesus</b></br></br></br></br>n</div>","v","","","","","","","triangle","26","You","You","true","Self","","","","","","","","","","","","",""
"","sat_feedback","","html-keyboard-response","97","375786","0.0-18.0-2.25","Elvis","Jesus","","","","","","","","","","","","","","","","","","","","","null","<p style = 'font-size: 300%; color:green'>Correct!</p>","null","","","","","","","","","","","","","","","","","","","","","","","","",""
"","sat_fixationcross","","html-keyboard-response","98","376297","0.0-18.0-0.26","Elvis","Jesus","","","","","","","","","","","","","","","","","","","","","null","<div  style='font-size:500%; position:fixed; text-align: center; top:50%; bottom:50%; right:20%; left:20%'>+</div>","null","","","","","","500","","","","","","","","","","","","","","","","","","",""
"","sat_practicetrial","","html-keyboard-response","99","376922","0.0-18.0-1.26","Elvis","Jesus","","","","","","","","","","","","","","","","","","","","","624","<div style='bottom:60%; right:20%; left:20%; position:fixed'><img src=https://realitybending.github.io/IllusionGameSelfAssociation/experiment/SelfAssociation/stimuli/circle.png height=20%></img></div><div  style='font-size:500%; position:fixed; text-align: center; top:50%; bottom:50%; right:20%; left:20%'>+</div><div style = ""font-size:300%; text-align: center; position:fixed; top:70%; left:20%""><b>You</b></br></br></br></br>v</div><div style = ""font-size:300%; text-align: center; position:fixed; top:70%; right:20%; left:20%""><b>Elvis</b></br></br></br></br>b</div><div style = ""font-size:300%; text-align: center; position:fixed; top:70%; right:20%""><b>Jesus</b></br></br></br></br>n</div>","n","","","","","","","circle","27","Jesus","Elvis","false","Stranger","","","","","","","","","","","","",""
"","sat_feedback","","html-keyboard-response","100","377431","0.0-18.0-2.26","Elvis","Jesus","","","","","","","","","","","","","","","","","","","","","null","<p style = 'font-size: 300%; color:red'>Incorrect!</p>","null","","","","","","","","","","","","","","","","","","","","","","","","",""
"","sat_fixationcross","","html-keyboard-response","101","377941","0.0-18.0-0.27","Elvis","Jesus","","","","","","","","","","","","","","","","","","","","","null","<div  style='font-size:500%; position:fixed; text-align: center; top:50%; bottom:50%; right:20%; left:20%'>+</div>","null","","","","","","500","","","","","","","","","","","","","","","","","","",""
"","sat_practicetrial","","html-keyboard-response","102","378362","0.0-18.0-1.27","Elvis","Jesus","","","","","","","","","","","","","","","","","","","","","420","<div style='bottom:60%; right:20%; left:20%; position:fixed'><img src=https://realitybending.github.io/IllusionGameSelfAssociation/experiment/SelfAssociation/stimuli/circle.png height=20%></img></div><div  style='font-size:500%; position:fixed; text-align: center; top:50%; bottom:50%; right:20%; left:20%'>+</div><div style = ""font-size:300%; text-align: center; position:fixed; top:70%; left:20%""><b>You</b></br></br></br></br>v</div><div style = ""font-size:300%; text-align: center; position:fixed; top:70%; right:20%; left:20%""><b>Elvis</b></br></br></br></br>b</div><div style = ""font-size:300%; text-align: center; position:fixed; top:70%; right:20%""><b>Jesus</b></br></br></br></br>n</div>","n","","","","","","","circle","28","Jesus","Elvis","false","Stranger","","","","","","","","","","","","",""
"","sat_feedback","","html-keyboard-response","103","378871","0.0-18.0-2.27","Elvis","Jesus","","","","","","","","","","","","","","","","","","","","","null","<p style = 'font-size: 300%; color:red'>Incorrect!</p>","null","","","","","","","","","","","","","","","","","","","","","","","","",""
"","sat_fixationcross","","html-keyboard-response","104","379382","0.0-18.0-0.28","Elvis","Jesus","","","","","","","","","","","","","","","","","","","","","null","<div  style='font-size:500%; position:fixed; text-align: center; top:50%; bottom:50%; right:20%; left:20%'>+</div>","null","","","","","","500","","","","","","","","","","","","","","","","","","",""
"","sat_practicetrial","","html-keyboard-response","105","379794","0.0-18.0-1.28","Elvis","Jesus","","","","","","","","","","","","","","","","","","","","","411","<div style='bottom:60%; right:20%; left:20%; position:fixed'><img src=https://realitybending.github.io/IllusionGameSelfAssociation/experiment/SelfAssociation/stimuli/circle.png height=20%></img></div><div  style='font-size:500%; position:fixed; text-align: center; top:50%; bottom:50%; right:20%; left:20%'>+</div><div style = ""font-size:300%; text-align: center; position:fixed; top:70%; left:20%""><b>You</b></br></br></br></br>v</div><div style = ""font-size:300%; text-align: center; position:fixed; top:70%; right:20%; left:20%""><b>Elvis</b></br></br></br></br>b</div><div style = ""font-size:300%; text-align: center; position:fixed; top:70%; right:20%""><b>Jesus</b></br></br></br></br>n</div>","b","","","","","","","circle","29","Elvis","Elvis","true","Stranger","","","","","","","","","","","","",""
"","sat_feedback","","html-keyboard-response","106","380295","0.0-18.0-2.28","Elvis","Jesus","","","","","","","","","","","","","","","","","","","","","null","<p style = 'font-size: 300%; color:green'>Correct!</p>","null","","","","","","","","","","","","","","","","","","","","","","","","",""
"","sat_fixationcross","","html-keyboard-response","107","380807","0.0-18.0-0.29","Elvis","Jesus","","","","","","","","","","","","","","","","","","","","","null","<div  style='font-size:500%; position:fixed; text-align: center; top:50%; bottom:50%; right:20%; left:20%'>+</div>","null","","","","","","500","","","","","","","","","","","","","","","","","","",""
"","sat_practicetrial","","html-keyboard-response","108","381146","0.0-18.0-1.29","Elvis","Jesus","","","","","","","","","","","","","","","","","","","","","338","<div style='bottom:60%; right:20%; left:20%; position:fixed'><img src=https://realitybending.github.io/IllusionGameSelfAssociation/experiment/SelfAssociation/stimuli/circle.png height=20%></img></div><div  style='font-size:500%; position:fixed; text-align: center; top:50%; bottom:50%; right:20%; left:20%'>+</div><div style = ""font-size:300%; text-align: center; position:fixed; top:70%; left:20%""><b>You</b></br></br></br></br>v</div><div style = ""font-size:300%; text-align: center; position:fixed; top:70%; right:20%; left:20%""><b>Elvis</b></br></br></br></br>b</div><div style = ""font-size:300%; text-align: center; position:fixed; top:70%; right:20%""><b>Jesus</b></br></br></br></br>n</div>","b","","","","","","","circle","30","Elvis","Elvis","true","Stranger","","","","","","","","","","","","",""
"","sat_feedback","","html-keyboard-response","109","381658","0.0-18.0-2.29","Elvis","Jesus","","","","","","","","","","","","","","","","","","","","","null","<p style = 'font-size: 300%; color:green'>Correct!</p>","null","","","","","","","","","","","","","","","","","","","","","","","","",""
"","sat_fixationcross","","html-keyboard-response","110","382166","0.0-18.0-0.30","Elvis","Jesus","","","","","","","","","","","","","","","","","","","","","null","<div  style='font-size:500%; position:fixed; text-align: center; top:50%; bottom:50%; right:20%; left:20%'>+</div>","null","","","","","","500","","","","","","","","","","","","","","","","","","",""
"","sat_practicetrial","","html-keyboard-response","111","382554","0.0-18.0-1.30","Elvis","Jesus","","","","","","","","","","","","","","","","","","","","","387","<div style='bottom:60%; right:20%; left:20%; position:fixed'><img src=https://realitybending.github.io/IllusionGameSelfAssociation/experiment/SelfAssociation/stimuli/triangle.png height=20%></img></div><div  style='font-size:500%; position:fixed; text-align: center; top:50%; bottom:50%; right:20%; left:20%'>+</div><div style = ""font-size:300%; text-align: center; position:fixed; top:70%; left:20%""><b>You</b></br></br></br></br>v</div><div style = ""font-size:300%; text-align: center; position:fixed; top:70%; right:20%; left:20%""><b>Elvis</b></br></br></br></br>b</div><div style = ""font-size:300%; text-align: center; position:fixed; top:70%; right:20%""><b>Jesus</b></br></br></br></br>n</div>","v","","","","","","","triangle","31","You","You","true","Self","","","","","","","","","","","","",""
"","sat_feedback","","html-keyboard-response","112","383062","0.0-18.0-2.30","Elvis","Jesus","","","","","","","","","","","","","","","","","","","","","null","<p style = 'font-size: 300%; color:green'>Correct!</p>","null","","","","","","","","","","","","","","","","","","","","","","","","",""
"","sat_fixationcross","","html-keyboard-response","113","383571","0.0-18.0-0.31","Elvis","Jesus","","","","","","","","","","","","","","","","","","","","","null","<div  style='font-size:500%; position:fixed; text-align: center; top:50%; bottom:50%; right:20%; left:20%'>+</div>","null","","","","","","500","","","","","","","","","","","","","","","","","","",""
"","sat_practicetrial","","html-keyboard-response","114","384010","0.0-18.0-1.31","Elvis","Jesus","","","","","","","","","","","","","","","","","","","","","439","<div style='bottom:60%; right:20%; left:20%; position:fixed'><img src=https://realitybending.github.io/IllusionGameSelfAssociation/experiment/SelfAssociation/stimuli/circle.png height=20%></img></div><div  style='font-size:500%; position:fixed; text-align: center; top:50%; bottom:50%; right:20%; left:20%'>+</div><div style = ""font-size:300%; text-align: center; position:fixed; top:70%; left:20%""><b>You</b></br></br></br></br>v</div><div style = ""font-size:300%; text-align: center; position:fixed; top:70%; right:20%; left:20%""><b>Elvis</b></br></br></br></br>b</div><div style = ""font-size:300%; text-align: center; position:fixed; top:70%; right:20%""><b>Jesus</b></br></br></br></br>n</div>","b","","","","","","","circle","32","Elvis","Elvis","true","Stranger","","","","","","","","","","","","",""
"","sat_feedback","","html-keyboard-response","115","384518","0.0-18.0-2.31","Elvis","Jesus","","","","","","","","","","","","","","","","","","","","","null","<p style = 'font-size: 300%; color:green'>Correct!</p>","null","","","","","","","","","","","","","","","","","","","","","","","","",""
"","sat_fixationcross","","html-keyboard-response","116","385029","0.0-18.0-0.32","Elvis","Jesus","","","","","","","","","","","","","","","","","","","","","null","<div  style='font-size:500%; position:fixed; text-align: center; top:50%; bottom:50%; right:20%; left:20%'>+</div>","null","","","","","","500","","","","","","","","","","","","","","","","","","",""
"","sat_practicetrial","","html-keyboard-response","117","385394","0.0-18.0-1.32","Elvis","Jesus","","","","","","","","","","","","","","","","","","","","","364","<div style='bottom:60%; right:20%; left:20%; position:fixed'><img src=https://realitybending.github.io/IllusionGameSelfAssociation/experiment/SelfAssociation/stimuli/square.png height=20%></img></div><div  style='font-size:500%; position:fixed; text-align: center; top:50%; bottom:50%; right:20%; left:20%'>+</div><div style = ""font-size:300%; text-align: center; position:fixed; top:70%; left:20%""><b>You</b></br></br></br></br>v</div><div style = ""font-size:300%; text-align: center; position:fixed; top:70%; right:20%; left:20%""><b>Elvis</b></br></br></br></br>b</div><div style = ""font-size:300%; text-align: center; position:fixed; top:70%; right:20%""><b>Jesus</b></br></br></br></br>n</div>","n","","","","","","","square","33","Jesus","Jesus","true","Friend","","","","","","","","","","","","",""
"","sat_feedback","","html-keyboard-response","118","385899","0.0-18.0-2.32","Elvis","Jesus","","","","","","","","","","","","","","","","","","","","","null","<p style = 'font-size: 300%; color:green'>Correct!</p>","null","","","","","","","","","","","","","","","","","","","","","","","","",""
"","sat_fixationcross","","html-keyboard-response","119","386408","0.0-18.0-0.33","Elvis","Jesus","","","","","","","","","","","","","","","","","","","","","null","<div  style='font-size:500%; position:fixed; text-align: center; top:50%; bottom:50%; right:20%; left:20%'>+</div>","null","","","","","","500","","","","","","","","","","","","","","","","","","",""
"","sat_practicetrial","","html-keyboard-response","120","386946","0.0-18.0-1.33","Elvis","Jesus","","","","","","","","","","","","","","","","","","","","","537","<div style='bottom:60%; right:20%; left:20%; position:fixed'><img src=https://realitybending.github.io/IllusionGameSelfAssociation/experiment/SelfAssociation/stimuli/circle.png height=20%></img></div><div  style='font-size:500%; position:fixed; text-align: center; top:50%; bottom:50%; right:20%; left:20%'>+</div><div style = ""font-size:300%; text-align: center; position:fixed; top:70%; left:20%""><b>You</b></br></br></br></br>v</div><div style = ""font-size:300%; text-align: center; position:fixed; top:70%; right:20%; left:20%""><b>Elvis</b></br></br></br></br>b</div><div style = ""font-size:300%; text-align: center; position:fixed; top:70%; right:20%""><b>Jesus</b></br></br></br></br>n</div>","b","","","","","","","circle","34","Elvis","Elvis","true","Stranger","","","","","","","","","","","","",""
"","sat_feedback","","html-keyboard-response","121","387461","0.0-18.0-2.33","Elvis","Jesus","","","","","","","","","","","","","","","","","","","","","null","<p style = 'font-size: 300%; color:green'>Correct!</p>","null","","","","","","","","","","","","","","","","","","","","","","","","",""
"","sat_fixationcross","","html-keyboard-response","122","387971","0.0-18.0-0.34","Elvis","Jesus","","","","","","","","","","","","","","","","","","","","","null","<div  style='font-size:500%; position:fixed; text-align: center; top:50%; bottom:50%; right:20%; left:20%'>+</div>","null","","","","","","500","","","","","","","","","","","","","","","","","","",""
"","sat_practicetrial","","html-keyboard-response","123","388906","0.0-18.0-1.34","Elvis","Jesus","","","","","","","","","","","","","","","","","","","","","934","<div style='bottom:60%; right:20%; left:20%; position:fixed'><img src=https://realitybending.github.io/IllusionGameSelfAssociation/experiment/SelfAssociation/stimuli/circle.png height=20%></img></div><div  style='font-size:500%; position:fixed; text-align: center; top:50%; bottom:50%; right:20%; left:20%'>+</div><div style = ""font-size:300%; text-align: center; position:fixed; top:70%; left:20%""><b>You</b></br></br></br></br>v</div><div style = ""font-size:300%; text-align: center; position:fixed; top:70%; right:20%; left:20%""><b>Elvis</b></br></br></br></br>b</div><div style = ""font-size:300%; text-align: center; position:fixed; top:70%; right:20%""><b>Jesus</b></br></br></br></br>n</div>","b","","","","","","","circle","35","Elvis","Elvis","true","Stranger","","","","","","","","","","","","",""
"","sat_feedback","","html-keyboard-response","124","389413","0.0-18.0-2.34","Elvis","Jesus","","","","","","","","","","","","","","","","","","","","","null","<p style = 'font-size: 300%; color:green'>Correct!</p>","null","","","","","","","","","","","","","","","","","","","","","","","","",""
"","sat_fixationcross","","html-keyboard-response","125","389924","0.0-18.0-0.35","Elvis","Jesus","","","","","","","","","","","","","","","","","","","","","null","<div  style='font-size:500%; position:fixed; text-align: center; top:50%; bottom:50%; right:20%; left:20%'>+</div>","null","","","","","","500","","","","","","","","","","","","","","","","","","",""
"","sat_practicetrial","","html-keyboard-response","126","390458","0.0-18.0-1.35","Elvis","Jesus","","","","","","","","","","","","","","","","","","","","","533","<div style='bottom:60%; right:20%; left:20%; position:fixed'><img src=https://realitybending.github.io/IllusionGameSelfAssociation/experiment/SelfAssociation/stimuli/circle.png height=20%></img></div><div  style='font-size:500%; position:fixed; text-align: center; top:50%; bottom:50%; right:20%; left:20%'>+</div><div style = ""font-size:300%; text-align: center; position:fixed; top:70%; left:20%""><b>You</b></br></br></br></br>v</div><div style = ""font-size:300%; text-align: center; position:fixed; top:70%; right:20%; left:20%""><b>Elvis</b></br></br></br></br>b</div><div style = ""font-size:300%; text-align: center; position:fixed; top:70%; right:20%""><b>Jesus</b></br></br></br></br>n</div>","b","","","","","","","circle","36","Elvis","Elvis","true","Stranger","","","","","","","","","","","","",""
"","sat_feedback","","html-keyboard-response","127","390962","0.0-18.0-2.35","Elvis","Jesus","","","","","","","","","","","","","","","","","","","","","null","<p style = 'font-size: 300%; color:green'>Correct!</p>","null","","","","","","","","","","","","","","","","","","","","","","","","",""
"","sat_fixationcross","","html-keyboard-response","128","391471","0.0-18.0-0.36","Elvis","Jesus","","","","","","","","","","","","","","","","","","","","","null","<div  style='font-size:500%; position:fixed; text-align: center; top:50%; bottom:50%; right:20%; left:20%'>+</div>","null","","","","","","500","","","","","","","","","","","","","","","","","","",""
"","sat_practicetrial","","html-keyboard-response","129","391986","0.0-18.0-1.36","Elvis","Jesus","","","","","","","","","","","","","","","","","","","","","514","<div style='bottom:60%; right:20%; left:20%; position:fixed'><img src=https://realitybending.github.io/IllusionGameSelfAssociation/experiment/SelfAssociation/stimuli/circle.png height=20%></img></div><div  style='font-size:500%; position:fixed; text-align: center; top:50%; bottom:50%; right:20%; left:20%'>+</div><div style = ""font-size:300%; text-align: center; position:fixed; top:70%; left:20%""><b>You</b></br></br></br></br>v</div><div style = ""font-size:300%; text-align: center; position:fixed; top:70%; right:20%; left:20%""><b>Elvis</b></br></br></br></br>b</div><div style = ""font-size:300%; text-align: center; position:fixed; top:70%; right:20%""><b>Jesus</b></br></br></br></br>n</div>","b","","","","","","","circle","37","Elvis","Elvis","true","Stranger","","","","","","","","","","","","",""
"","sat_feedback","","html-keyboard-response","130","392495","0.0-18.0-2.36","Elvis","Jesus","","","","","","","","","","","","","","","","","","","","","null","<p style = 'font-size: 300%; color:green'>Correct!</p>","null","","","","","","","","","","","","","","","","","","","","","","","","",""
"","sat_fixationcross","","html-keyboard-response","131","393006","0.0-18.0-0.37","Elvis","Jesus","","","","","","","","","","","","","","","","","","","","","null","<div  style='font-size:500%; position:fixed; text-align: center; top:50%; bottom:50%; right:20%; left:20%'>+</div>","null","","","","","","500","","","","","","","","","","","","","","","","","","",""
"","sat_practicetrial","","html-keyboard-response","132","393386","0.0-18.0-1.37","Elvis","Jesus","","","","","","","","","","","","","","","","","","","","","379","<div style='bottom:60%; right:20%; left:20%; position:fixed'><img src=https://realitybending.github.io/IllusionGameSelfAssociation/experiment/SelfAssociation/stimuli/square.png height=20%></img></div><div  style='font-size:500%; position:fixed; text-align: center; top:50%; bottom:50%; right:20%; left:20%'>+</div><div style = ""font-size:300%; text-align: center; position:fixed; top:70%; left:20%""><b>You</b></br></br></br></br>v</div><div style = ""font-size:300%; text-align: center; position:fixed; top:70%; right:20%; left:20%""><b>Elvis</b></br></br></br></br>b</div><div style = ""font-size:300%; text-align: center; position:fixed; top:70%; right:20%""><b>Jesus</b></br></br></br></br>n</div>","n","","","","","","","square","38","Jesus","Jesus","true","Friend","","","","","","","","","","","","",""
"","sat_feedback","","html-keyboard-response","133","393890","0.0-18.0-2.37","Elvis","Jesus","","","","","","","","","","","","","","","","","","","","","null","<p style = 'font-size: 300%; color:green'>Correct!</p>","null","","","","","","","","","","","","","","","","","","","","","","","","",""
"","sat_fixationcross","","html-keyboard-response","134","394401","0.0-18.0-0.38","Elvis","Jesus","","","","","","","","","","","","","","","","","","","","","null","<div  style='font-size:500%; position:fixed; text-align: center; top:50%; bottom:50%; right:20%; left:20%'>+</div>","null","","","","","","500","","","","","","","","","","","","","","","","","","",""
"","sat_practicetrial","","html-keyboard-response","135","394954","0.0-18.0-1.38","Elvis","Jesus","","","","","","","","","","","","","","","","","","","","","552","<div style='bottom:60%; right:20%; left:20%; position:fixed'><img src=https://realitybending.github.io/IllusionGameSelfAssociation/experiment/SelfAssociation/stimuli/square.png height=20%></img></div><div  style='font-size:500%; position:fixed; text-align: center; top:50%; bottom:50%; right:20%; left:20%'>+</div><div style = ""font-size:300%; text-align: center; position:fixed; top:70%; left:20%""><b>You</b></br></br></br></br>v</div><div style = ""font-size:300%; text-align: center; position:fixed; top:70%; right:20%; left:20%""><b>Elvis</b></br></br></br></br>b</div><div style = ""font-size:300%; text-align: center; position:fixed; top:70%; right:20%""><b>Jesus</b></br></br></br></br>n</div>","n","","","","","","","square","39","Jesus","Jesus","true","Friend","","","","","","","","","","","","",""
"","sat_feedback","","html-keyboard-response","136","395457","0.0-18.0-2.38","Elvis","Jesus","","","","","","","","","","","","","","","","","","","","","null","<p style = 'font-size: 300%; color:green'>Correct!</p>","null","","","","","","","","","","","","","","","","","","","","","","","","",""
"","sat_fixationcross","","html-keyboard-response","137","395971","0.0-18.0-0.39","Elvis","Jesus","","","","","","","","","","","","","","","","","","","","","null","<div  style='font-size:500%; position:fixed; text-align: center; top:50%; bottom:50%; right:20%; left:20%'>+</div>","null","","","","","","500","","","","","","","","","","","","","","","","","","",""
"","sat_practicetrial","","html-keyboard-response","138","396402","0.0-18.0-1.39","Elvis","Jesus","","","","","","","","","","","","","","","","","","","","","430","<div style='bottom:60%; right:20%; left:20%; position:fixed'><img src=https://realitybending.github.io/IllusionGameSelfAssociation/experiment/SelfAssociation/stimuli/square.png height=20%></img></div><div  style='font-size:500%; position:fixed; text-align: center; top:50%; bottom:50%; right:20%; left:20%'>+</div><div style = ""font-size:300%; text-align: center; position:fixed; top:70%; left:20%""><b>You</b></br></br></br></br>v</div><div style = ""font-size:300%; text-align: center; position:fixed; top:70%; right:20%; left:20%""><b>Elvis</b></br></br></br></br>b</div><div style = ""font-size:300%; text-align: center; position:fixed; top:70%; right:20%""><b>Jesus</b></br></br></br></br>n</div>","n","","","","","","","square","40","Jesus","Jesus","true","Friend","","","","","","","","","","","","",""
"","sat_feedback","","html-keyboard-response","139","396914","0.0-18.0-2.39","Elvis","Jesus","","","","","","","","","","","","","","","","","","","","","null","<p style = 'font-size: 300%; color:green'>Correct!</p>","null","","","","","","","","","","","","","","","","","","","","","","","","",""
"","sat_fixationcross","","html-keyboard-response","140","397427","0.0-18.0-0.40","Elvis","Jesus","","","","","","","","","","","","","","","","","","","","","null","<div  style='font-size:500%; position:fixed; text-align: center; top:50%; bottom:50%; right:20%; left:20%'>+</div>","null","","","","","","500","","","","","","","","","","","","","","","","","","",""
"","sat_practicetrial","","html-keyboard-response","141","398066","0.0-18.0-1.40","Elvis","Jesus","","","","","","","","","","","","","","","","","","","","","638","<div style='bottom:60%; right:20%; left:20%; position:fixed'><img src=https://realitybending.github.io/IllusionGameSelfAssociation/experiment/SelfAssociation/stimuli/triangle.png height=20%></img></div><div  style='font-size:500%; position:fixed; text-align: center; top:50%; bottom:50%; right:20%; left:20%'>+</div><div style = ""font-size:300%; text-align: center; position:fixed; top:70%; left:20%""><b>You</b></br></br></br></br>v</div><div style = ""font-size:300%; text-align: center; position:fixed; top:70%; right:20%; left:20%""><b>Elvis</b></br></br></br></br>b</div><div style = ""font-size:300%; text-align: center; position:fixed; top:70%; right:20%""><b>Jesus</b></br></br></br></br>n</div>","v","","","","","","","triangle","41","You","You","true","Self","","","","","","","","","","","","",""
"","sat_feedback","","html-keyboard-response","142","398574","0.0-18.0-2.40","Elvis","Jesus","","","","","","","","","","","","","","","","","","","","","null","<p style = 'font-size: 300%; color:green'>Correct!</p>","null","","","","","","","","","","","","","","","","","","","","","","","","",""
"","sat_fixationcross","","html-keyboard-response","143","399085","0.0-18.0-0.41","Elvis","Jesus","","","","","","","","","","","","","","","","","","","","","null","<div  style='font-size:500%; position:fixed; text-align: center; top:50%; bottom:50%; right:20%; left:20%'>+</div>","null","","","","","","500","","","","","","","","","","","","","","","","","","",""
"","sat_practicetrial","","html-keyboard-response","144","400690","0.0-18.0-1.41","Elvis","Jesus","","","","","","","","","","","","","","","","","","","","","1604","<div style='bottom:60%; right:20%; left:20%; position:fixed'><img src=https://realitybending.github.io/IllusionGameSelfAssociation/experiment/SelfAssociation/stimuli/circle.png height=20%></img></div><div  style='font-size:500%; position:fixed; text-align: center; top:50%; bottom:50%; right:20%; left:20%'>+</div><div style = ""font-size:300%; text-align: center; position:fixed; top:70%; left:20%""><b>You</b></br></br></br></br>v</div><div style = ""font-size:300%; text-align: center; position:fixed; top:70%; right:20%; left:20%""><b>Elvis</b></br></br></br></br>b</div><div style = ""font-size:300%; text-align: center; position:fixed; top:70%; right:20%""><b>Jesus</b></br></br></br></br>n</div>","b","","","","","","","circle","42","Elvis","Elvis","true","Stranger","","","","","","","","","","","","",""
"","sat_feedback","","html-keyboard-response","145","401202","0.0-18.0-2.41","Elvis","Jesus","","","","","","","","","","","","","","","","","","","","","null","<p style = 'font-size: 300%; color:green'>Correct!</p>","null","","","","","","","","","","","","","","","","","","","","","","","","",""
"","sat_fixationcross","","html-keyboard-response","146","401711","0.0-18.0-0.42","Elvis","Jesus","","","","","","","","","","","","","","","","","","","","","null","<div  style='font-size:500%; position:fixed; text-align: center; top:50%; bottom:50%; right:20%; left:20%'>+</div>","null","","","","","","500","","","","","","","","","","","","","","","","","","",""
"","sat_practicetrial","","html-keyboard-response","147","402090","0.0-18.0-1.42","Elvis","Jesus","","","","","","","","","","","","","","","","","","","","","379","<div style='bottom:60%; right:20%; left:20%; position:fixed'><img src=https://realitybending.github.io/IllusionGameSelfAssociation/experiment/SelfAssociation/stimuli/square.png height=20%></img></div><div  style='font-size:500%; position:fixed; text-align: center; top:50%; bottom:50%; right:20%; left:20%'>+</div><div style = ""font-size:300%; text-align: center; position:fixed; top:70%; left:20%""><b>You</b></br></br></br></br>v</div><div style = ""font-size:300%; text-align: center; position:fixed; top:70%; right:20%; left:20%""><b>Elvis</b></br></br></br></br>b</div><div style = ""font-size:300%; text-align: center; position:fixed; top:70%; right:20%""><b>Jesus</b></br></br></br></br>n</div>","n","","","","","","","square","43","Jesus","Jesus","true","Friend","","","","","","","","","","","","",""
"","sat_feedback","","html-keyboard-response","148","402596","0.0-18.0-2.42","Elvis","Jesus","","","","","","","","","","","","","","","","","","","","","null","<p style = 'font-size: 300%; color:green'>Correct!</p>","null","","","","","","","","","","","","","","","","","","","","","","","","",""
"","sat_fixationcross","","html-keyboard-response","149","403107","0.0-18.0-0.43","Elvis","Jesus","","","","","","","","","","","","","","","","","","","","","null","<div  style='font-size:500%; position:fixed; text-align: center; top:50%; bottom:50%; right:20%; left:20%'>+</div>","null","","","","","","500","","","","","","","","","","","","","","","","","","",""
"","sat_practicetrial","","html-keyboard-response","150","403458","0.0-18.0-1.43","Elvis","Jesus","","","","","","","","","","","","","","","","","","","","","351","<div style='bottom:60%; right:20%; left:20%; position:fixed'><img src=https://realitybending.github.io/IllusionGameSelfAssociation/experiment/SelfAssociation/stimuli/square.png height=20%></img></div><div  style='font-size:500%; position:fixed; text-align: center; top:50%; bottom:50%; right:20%; left:20%'>+</div><div style = ""font-size:300%; text-align: center; position:fixed; top:70%; left:20%""><b>You</b></br></br></br></br>v</div><div style = ""font-size:300%; text-align: center; position:fixed; top:70%; right:20%; left:20%""><b>Elvis</b></br></br></br></br>b</div><div style = ""font-size:300%; text-align: center; position:fixed; top:70%; right:20%""><b>Jesus</b></br></br></br></br>n</div>","n","","","","","","","square","44","Jesus","Jesus","true","Friend","","","","","","","","","","","","",""
"","sat_feedback","","html-keyboard-response","151","403972","0.0-18.0-2.43","Elvis","Jesus","","","","","","","","","","","","","","","","","","","","","null","<p style = 'font-size: 300%; color:green'>Correct!</p>","null","","","","","","","","","","","","","","","","","","","","","","","","",""
"","sat_fixationcross","","html-keyboard-response","152","404482","0.0-18.0-0.44","Elvis","Jesus","","","","","","","","","","","","","","","","","","","","","null","<div  style='font-size:500%; position:fixed; text-align: center; top:50%; bottom:50%; right:20%; left:20%'>+</div>","null","","","","","","500","","","","","","","","","","","","","","","","","","",""
"","sat_practicetrial","","html-keyboard-response","153","404842","0.0-18.0-1.44","Elvis","Jesus","","","","","","","","","","","","","","","","","","","","","359","<div style='bottom:60%; right:20%; left:20%; position:fixed'><img src=https://realitybending.github.io/IllusionGameSelfAssociation/experiment/SelfAssociation/stimuli/square.png height=20%></img></div><div  style='font-size:500%; position:fixed; text-align: center; top:50%; bottom:50%; right:20%; left:20%'>+</div><div style = ""font-size:300%; text-align: center; position:fixed; top:70%; left:20%""><b>You</b></br></br></br></br>v</div><div style = ""font-size:300%; text-align: center; position:fixed; top:70%; right:20%; left:20%""><b>Elvis</b></br></br></br></br>b</div><div style = ""font-size:300%; text-align: center; position:fixed; top:70%; right:20%""><b>Jesus</b></br></br></br></br>n</div>","n","","","","","","","square","45","Jesus","Jesus","true","Friend","","","","","","","","","","","","",""
"","sat_feedback","","html-keyboard-response","154","405351","0.0-18.0-2.44","Elvis","Jesus","","","","","","","","","","","","","","","","","","","","","null","<p style = 'font-size: 300%; color:green'>Correct!</p>","null","","","","","","","","","","","","","","","","","","","","","","","","",""
"","sat_fixationcross","","html-keyboard-response","155","405864","0.0-18.0-0.45","Elvis","Jesus","","","","","","","","","","","","","","","","","","","","","null","<div  style='font-size:500%; position:fixed; text-align: center; top:50%; bottom:50%; right:20%; left:20%'>+</div>","null","","","","","","500","","","","","","","","","","","","","","","","","","",""
"","sat_practicetrial","","html-keyboard-response","156","406674","0.0-18.0-1.45","Elvis","Jesus","","","","","","","","","","","","","","","","","","","","","810","<div style='bottom:60%; right:20%; left:20%; position:fixed'><img src=https://realitybending.github.io/IllusionGameSelfAssociation/experiment/SelfAssociation/stimuli/triangle.png height=20%></img></div><div  style='font-size:500%; position:fixed; text-align: center; top:50%; bottom:50%; right:20%; left:20%'>+</div><div style = ""font-size:300%; text-align: center; position:fixed; top:70%; left:20%""><b>You</b></br></br></br></br>v</div><div style = ""font-size:300%; text-align: center; position:fixed; top:70%; right:20%; left:20%""><b>Elvis</b></br></br></br></br>b</div><div style = ""font-size:300%; text-align: center; position:fixed; top:70%; right:20%""><b>Jesus</b></br></br></br></br>n</div>","v","","","","","","","triangle","46","You","You","true","Self","","","","","","","","","","","","",""
"","sat_feedback","","html-keyboard-response","157","407180","0.0-18.0-2.45","Elvis","Jesus","","","","","","","","","","","","","","","","","","","","","null","<p style = 'font-size: 300%; color:green'>Correct!</p>","null","","","","","","","","","","","","","","","","","","","","","","","","",""
"","sat_fixationcross","","html-keyboard-response","158","407694","0.0-18.0-0.46","Elvis","Jesus","","","","","","","","","","","","","","","","","","","","","null","<div  style='font-size:500%; position:fixed; text-align: center; top:50%; bottom:50%; right:20%; left:20%'>+</div>","null","","","","","","500","","","","","","","","","","","","","","","","","","",""
"","sat_practicetrial","","html-keyboard-response","159","408138","0.0-18.0-1.46","Elvis","Jesus","","","","","","","","","","","","","","","","","","","","","443","<div style='bottom:60%; right:20%; left:20%; position:fixed'><img src=https://realitybending.github.io/IllusionGameSelfAssociation/experiment/SelfAssociation/stimuli/square.png height=20%></img></div><div  style='font-size:500%; position:fixed; text-align: center; top:50%; bottom:50%; right:20%; left:20%'>+</div><div style = ""font-size:300%; text-align: center; position:fixed; top:70%; left:20%""><b>You</b></br></br></br></br>v</div><div style = ""font-size:300%; text-align: center; position:fixed; top:70%; right:20%; left:20%""><b>Elvis</b></br></br></br></br>b</div><div style = ""font-size:300%; text-align: center; position:fixed; top:70%; right:20%""><b>Jesus</b></br></br></br></br>n</div>","b","","","","","","","square","47","Elvis","Jesus","false","Friend","","","","","","","","","","","","",""
"","sat_feedback","","html-keyboard-response","160","408643","0.0-18.0-2.46","Elvis","Jesus","","","","","","","","","","","","","","","","","","","","","null","<p style = 'font-size: 300%; color:red'>Incorrect!</p>","null","","","","","","","","","","","","","","","","","","","","","","","","",""
"","sat_fixationcross","","html-keyboard-response","161","409153","0.0-18.0-0.47","Elvis","Jesus","","","","","","","","","","","","","","","","","","","","","null","<div  style='font-size:500%; position:fixed; text-align: center; top:50%; bottom:50%; right:20%; left:20%'>+</div>","null","","","","","","500","","","","","","","","","","","","","","","","","","",""
"","sat_practicetrial","","html-keyboard-response","162","409538","0.0-18.0-1.47","Elvis","Jesus","","","","","","","","","","","","","","","","","","","","","384","<div style='bottom:60%; right:20%; left:20%; position:fixed'><img src=https://realitybending.github.io/IllusionGameSelfAssociation/experiment/SelfAssociation/stimuli/square.png height=20%></img></div><div  style='font-size:500%; position:fixed; text-align: center; top:50%; bottom:50%; right:20%; left:20%'>+</div><div style = ""font-size:300%; text-align: center; position:fixed; top:70%; left:20%""><b>You</b></br></br></br></br>v</div><div style = ""font-size:300%; text-align: center; position:fixed; top:70%; right:20%; left:20%""><b>Elvis</b></br></br></br></br>b</div><div style = ""font-size:300%; text-align: center; position:fixed; top:70%; right:20%""><b>Jesus</b></br></br></br></br>n</div>","n","","","","","","","square","48","Jesus","Jesus","true","Friend","","","","","","","","","","","","",""
"","sat_feedback","","html-keyboard-response","163","410054","0.0-18.0-2.47","Elvis","Jesus","","","","","","","","","","","","","","","","","","","","","null","<p style = 'font-size: 300%; color:green'>Correct!</p>","null","","","","","","","","","","","","","","","","","","","","","","","","",""
"","sat_fixationcross","","html-keyboard-response","164","410569","0.0-18.0-0.48","Elvis","Jesus","","","","","","","","","","","","","","","","","","","","","null","<div  style='font-size:500%; position:fixed; text-align: center; top:50%; bottom:50%; right:20%; left:20%'>+</div>","null","","","","","","500","","","","","","","","","","","","","","","","","","",""
"","sat_practicetrial","","html-keyboard-response","165","410986","0.0-18.0-1.48","Elvis","Jesus","","","","","","","","","","","","","","","","","","","","","416","<div style='bottom:60%; right:20%; left:20%; position:fixed'><img src=https://realitybending.github.io/IllusionGameSelfAssociation/experiment/SelfAssociation/stimuli/square.png height=20%></img></div><div  style='font-size:500%; position:fixed; text-align: center; top:50%; bottom:50%; right:20%; left:20%'>+</div><div style = ""font-size:300%; text-align: center; position:fixed; top:70%; left:20%""><b>You</b></br></br></br></br>v</div><div style = ""font-size:300%; text-align: center; position:fixed; top:70%; right:20%; left:20%""><b>Elvis</b></br></br></br></br>b</div><div style = ""font-size:300%; text-align: center; position:fixed; top:70%; right:20%""><b>Jesus</b></br></br></br></br>n</div>","n","","","","","","","square","49","Jesus","Jesus","true","Friend","","","","","","","","","","","","",""
"","sat_feedback","","html-keyboard-response","166","411498","0.0-18.0-2.48","Elvis","Jesus","","","","","","","","","","","","","","","","","","","","","null","<p style = 'font-size: 300%; color:green'>Correct!</p>","null","","","","","","","","","","","","","","","","","","","","","","","","",""
"","sat_fixationcross","","html-keyboard-response","167","412009","0.0-18.0-0.49","Elvis","Jesus","","","","","","","","","","","","","","","","","","","","","null","<div  style='font-size:500%; position:fixed; text-align: center; top:50%; bottom:50%; right:20%; left:20%'>+</div>","null","","","","","","500","","","","","","","","","","","","","","","","","","",""
"","sat_practicetrial","","html-keyboard-response","168","412642","0.0-18.0-1.49","Elvis","Jesus","","","","","","","","","","","","","","","","","","","","","632","<div style='bottom:60%; right:20%; left:20%; position:fixed'><img src=https://realitybending.github.io/IllusionGameSelfAssociation/experiment/SelfAssociation/stimuli/triangle.png height=20%></img></div><div  style='font-size:500%; position:fixed; text-align: center; top:50%; bottom:50%; right:20%; left:20%'>+</div><div style = ""font-size:300%; text-align: center; position:fixed; top:70%; left:20%""><b>You</b></br></br></br></br>v</div><div style = ""font-size:300%; text-align: center; position:fixed; top:70%; right:20%; left:20%""><b>Elvis</b></br></br></br></br>b</div><div style = ""font-size:300%; text-align: center; position:fixed; top:70%; right:20%""><b>Jesus</b></br></br></br></br>n</div>","v","","","","","","","triangle","50","You","You","true","Self","","","","","","","","","","","","",""
"","sat_feedback","","html-keyboard-response","169","413155","0.0-18.0-2.49","Elvis","Jesus","","","","","","","","","","","","","","","","","","","","","null","<p style = 'font-size: 300%; color:green'>Correct!</p>","null","","","","","","","","","","","","","","","","","","","","","","","","",""
"","sat_fixationcross","","html-keyboard-response","170","413667","0.0-18.0-0.50","Elvis","Jesus","","","","","","","","","","","","","","","","","","","","","null","<div  style='font-size:500%; position:fixed; text-align: center; top:50%; bottom:50%; right:20%; left:20%'>+</div>","null","","","","","","500","","","","","","","","","","","","","","","","","","",""
"","sat_practicetrial","","html-keyboard-response","171","414098","0.0-18.0-1.50","Elvis","Jesus","","","","","","","","","","","","","","","","","","","","","430","<div style='bottom:60%; right:20%; left:20%; position:fixed'><img src=https://realitybending.github.io/IllusionGameSelfAssociation/experiment/SelfAssociation/stimuli/circle.png height=20%></img></div><div  style='font-size:500%; position:fixed; text-align: center; top:50%; bottom:50%; right:20%; left:20%'>+</div><div style = ""font-size:300%; text-align: center; position:fixed; top:70%; left:20%""><b>You</b></br></br></br></br>v</div><div style = ""font-size:300%; text-align: center; position:fixed; top:70%; right:20%; left:20%""><b>Elvis</b></br></br></br></br>b</div><div style = ""font-size:300%; text-align: center; position:fixed; top:70%; right:20%""><b>Jesus</b></br></br></br></br>n</div>","b","","","","","","","circle","51","Elvis","Elvis","true","Stranger","","","","","","","","","","","","",""
"","sat_feedback","","html-keyboard-response","172","414611","0.0-18.0-2.50","Elvis","Jesus","","","","","","","","","","","","","","","","","","","","","null","<p style = 'font-size: 300%; color:green'>Correct!</p>","null","","","","","","","","","","","","","","","","","","","","","","","","",""
"","sat_fixationcross","","html-keyboard-response","173","415121","0.0-18.0-0.51","Elvis","Jesus","","","","","","","","","","","","","","","","","","","","","null","<div  style='font-size:500%; position:fixed; text-align: center; top:50%; bottom:50%; right:20%; left:20%'>+</div>","null","","","","","","500","","","","","","","","","","","","","","","","","","",""
"","sat_practicetrial","","html-keyboard-response","174","415786","0.0-18.0-1.51","Elvis","Jesus","","","","","","","","","","","","","","","","","","","","","664","<div style='bottom:60%; right:20%; left:20%; position:fixed'><img src=https://realitybending.github.io/IllusionGameSelfAssociation/experiment/SelfAssociation/stimuli/square.png height=20%></img></div><div  style='font-size:500%; position:fixed; text-align: center; top:50%; bottom:50%; right:20%; left:20%'>+</div><div style = ""font-size:300%; text-align: center; position:fixed; top:70%; left:20%""><b>You</b></br></br></br></br>v</div><div style = ""font-size:300%; text-align: center; position:fixed; top:70%; right:20%; left:20%""><b>Elvis</b></br></br></br></br>b</div><div style = ""font-size:300%; text-align: center; position:fixed; top:70%; right:20%""><b>Jesus</b></br></br></br></br>n</div>","n","","","","","","","square","52","Jesus","Jesus","true","Friend","","","","","","","","","","","","",""
"","sat_feedback","","html-keyboard-response","175","416290","0.0-18.0-2.51","Elvis","Jesus","","","","","","","","","","","","","","","","","","","","","null","<p style = 'font-size: 300%; color:green'>Correct!</p>","null","","","","","","","","","","","","","","","","","","","","","","","","",""
"","sat_fixationcross","","html-keyboard-response","176","416800","0.0-18.0-0.52","Elvis","Jesus","","","","","","","","","","","","","","","","","","","","","null","<div  style='font-size:500%; position:fixed; text-align: center; top:50%; bottom:50%; right:20%; left:20%'>+</div>","null","","","","","","500","","","","","","","","","","","","","","","","","","",""
"","sat_practicetrial","","html-keyboard-response","177","417130","0.0-18.0-1.52","Elvis","Jesus","","","","","","","","","","","","","","","","","","","","","329","<div style='bottom:60%; right:20%; left:20%; position:fixed'><img src=https://realitybending.github.io/IllusionGameSelfAssociation/experiment/SelfAssociation/stimuli/square.png height=20%></img></div><div  style='font-size:500%; position:fixed; text-align: center; top:50%; bottom:50%; right:20%; left:20%'>+</div><div style = ""font-size:300%; text-align: center; position:fixed; top:70%; left:20%""><b>You</b></br></br></br></br>v</div><div style = ""font-size:300%; text-align: center; position:fixed; top:70%; right:20%; left:20%""><b>Elvis</b></br></br></br></br>b</div><div style = ""font-size:300%; text-align: center; position:fixed; top:70%; right:20%""><b>Jesus</b></br></br></br></br>n</div>","n","","","","","","","square","53","Jesus","Jesus","true","Friend","","","","","","","","","","","","",""
"","sat_feedback","","html-keyboard-response","178","417635","0.0-18.0-2.52","Elvis","Jesus","","","","","","","","","","","","","","","","","","","","","null","<p style = 'font-size: 300%; color:green'>Correct!</p>","null","","","","","","","","","","","","","","","","","","","","","","","","",""
"","sat_fixationcross","","html-keyboard-response","179","418151","0.0-18.0-0.53","Elvis","Jesus","","","","","","","","","","","","","","","","","","","","","null","<div  style='font-size:500%; position:fixed; text-align: center; top:50%; bottom:50%; right:20%; left:20%'>+</div>","null","","","","","","500","","","","","","","","","","","","","","","","","","",""
"","sat_practicetrial","","html-keyboard-response","180","418498","0.0-18.0-1.53","Elvis","Jesus","","","","","","","","","","","","","","","","","","","","","347","<div style='bottom:60%; right:20%; left:20%; position:fixed'><img src=https://realitybending.github.io/IllusionGameSelfAssociation/experiment/SelfAssociation/stimuli/square.png height=20%></img></div><div  style='font-size:500%; position:fixed; text-align: center; top:50%; bottom:50%; right:20%; left:20%'>+</div><div style = ""font-size:300%; text-align: center; position:fixed; top:70%; left:20%""><b>You</b></br></br></br></br>v</div><div style = ""font-size:300%; text-align: center; position:fixed; top:70%; right:20%; left:20%""><b>Elvis</b></br></br></br></br>b</div><div style = ""font-size:300%; text-align: center; position:fixed; top:70%; right:20%""><b>Jesus</b></br></br></br></br>n</div>","n","","","","","","","square","54","Jesus","Jesus","true","Friend","","","","","","","","","","","","",""
"","sat_feedback","","html-keyboard-response","181","419002","0.0-18.0-2.53","Elvis","Jesus","","","","","","","","","","","","","","","","","","","","","null","<p style = 'font-size: 300%; color:green'>Correct!</p>","null","","","","","","","","","","","","","","","","","","","","","","","","",""
"","sat_fixationcross","","html-keyboard-response","182","419509","0.0-18.0-0.54","Elvis","Jesus","","","","","","","","","","","","","","","","","","","","","null","<div  style='font-size:500%; position:fixed; text-align: center; top:50%; bottom:50%; right:20%; left:20%'>+</div>","null","","","","","","500","","","","","","","","","","","","","","","","","","",""
"","sat_practicetrial","","html-keyboard-response","183","420706","0.0-18.0-1.54","Elvis","Jesus","","","","","","","","","","","","","","","","","","","","","1196","<div style='bottom:60%; right:20%; left:20%; position:fixed'><img src=https://realitybending.github.io/IllusionGameSelfAssociation/experiment/SelfAssociation/stimuli/square.png height=20%></img></div><div  style='font-size:500%; position:fixed; text-align: center; top:50%; bottom:50%; right:20%; left:20%'>+</div><div style = ""font-size:300%; text-align: center; position:fixed; top:70%; left:20%""><b>You</b></br></br></br></br>v</div><div style = ""font-size:300%; text-align: center; position:fixed; top:70%; right:20%; left:20%""><b>Elvis</b></br></br></br></br>b</div><div style = ""font-size:300%; text-align: center; position:fixed; top:70%; right:20%""><b>Jesus</b></br></br></br></br>n</div>","b","","","","","","","square","55","Elvis","Jesus","false","Friend","","","","","","","","","","","","",""
"","sat_feedback","","html-keyboard-response","184","421217","0.0-18.0-2.54","Elvis","Jesus","","","","","","","","","","","","","","","","","","","","","null","<p style = 'font-size: 300%; color:red'>Incorrect!</p>","null","","","","","","","","","","","","","","","","","","","","","","","","",""
"","sat_fixationcross","","html-keyboard-response","185","421729","0.0-18.0-0.55","Elvis","Jesus","","","","","","","","","","","","","","","","","","","","","null","<div  style='font-size:500%; position:fixed; text-align: center; top:50%; bottom:50%; right:20%; left:20%'>+</div>","null","","","","","","500","","","","","","","","","","","","","","","","","","",""
