Participant,Trial,Answer,Correct,Correct_Answer,Label_Condition,RT,Response
v3hkn0g0za,1.0,Eminem,True,Eminem,Stranger,1318.0,b
v3hkn0g0za,2.0,Vous,True,Vous,Self,1656.0,v
v3hkn0g0za,3.0,Vous,True,Vous,Self,635.0,v
v3hkn0g0za,4.0,Vous,True,Vous,Self,689.0,v
v3hkn0g0za,5.0,Vous,True,Vous,Self,856.0,v
v3hkn0g0za,6.0,Vous,True,Vous,Self,522.0,v
v3hkn0g0za,7.0,Eric,True,Eric,Friend,633.0,n
v3hkn0g0za,8.0,Vous,True,Vous,Self,607.0,v
v3hkn0g0za,9.0,Eminem,True,Eminem,Stranger,749.0,b
v3hkn0g0za,10.0,Vous,True,Vous,Self,680.0,v
v3hkn0g0za,11.0,Eminem,True,Eminem,Stranger,703.0,b
v3hkn0g0za,12.0,Eric,True,Eric,Friend,646.0,n
v3hkn0g0za,13.0,Eminem,True,Eminem,Stranger,1020.0,b
v3hkn0g0za,14.0,Eminem,True,Eminem,Stranger,759.0,b
v3hkn0g0za,15.0,Eric,True,Eric,Friend,694.0,n
v3hkn0g0za,16.0,Eric,True,Eric,Friend,1046.0,n
v3hkn0g0za,17.0,Eric,True,Eric,Friend,607.0,n
v3hkn0g0za,18.0,Vous,True,Vous,Self,669.0,v
v3hkn0g0za,19.0,Eminem,True,Eminem,Stranger,582.0,b
210h5uz713,1.0,Vous,True,Vous,Self,652.0,v
210h5uz713,2.0,Vous,True,Vous,Self,443.0,v
210h5uz713,3.0,Vous,False,Pink,Stranger,344.0,v
210h5uz713,4.0,adonia,True,adonia,Friend,474.0,n
210h5uz713,5.0,Vous,True,Vous,Self,401.0,v
210h5uz713,6.0,Pink,True,Pink,Stranger,506.0,b
210h5uz713,7.0,adonia,True,adonia,Friend,511.0,n
210h5uz713,8.0,Vous,True,Vous,Self,451.0,v
210h5uz713,9.0,adonia,True,adonia,Friend,679.0,n
210h5uz713,10.0,adonia,True,adonia,Friend,595.0,n
210h5uz713,11.0,Pink,True,Pink,Stranger,554.0,b
210h5uz713,12.0,Pink,True,Pink,Stranger,389.0,b
210h5uz713,13.0,adonia,True,adonia,Friend,459.0,n
210h5uz713,14.0,Pink,True,Pink,Stranger,743.0,b
210h5uz713,15.0,Pink,True,Pink,Stranger,348.0,b
210h5uz713,16.0,adonia,True,adonia,Friend,415.0,n
210h5uz713,17.0,Pink,True,Pink,Stranger,423.0,b
210h5uz713,18.0,adonia,True,adonia,Friend,456.0,n
210h5uz713,19.0,Pink,True,Pink,Stranger,421.0,b
210h5uz713,20.0,Vous,True,Vous,Self,433.0,v
210h5uz713,21.0,adonia,True,adonia,Friend,478.0,n
210h5uz713,22.0,Pink,True,Pink,Stranger,447.0,b
3vosqpph84,1.0,You,True,You,Self,2379.0,v
3vosqpph84,2.0,ray,True,ray,Friend,2665.0,n
3vosqpph84,3.0,ray,True,ray,Friend,732.0,n
3vosqpph84,4.0,You,True,You,Self,670.0,v
3vosqpph84,5.0,You,True,You,Self,837.0,v
3vosqpph84,6.0,You,True,You,Self,488.0,v
3vosqpph84,7.0,You,True,You,Self,615.0,v
3vosqpph84,8.0,You,True,You,Self,490.0,v
3vosqpph84,9.0,Sting,True,Sting,Stranger,471.0,b
3vosqpph84,10.0,ray,True,ray,Friend,673.0,n
3vosqpph84,11.0,Sting,True,Sting,Stranger,543.0,b
3vosqpph84,12.0,You,True,You,Self,535.0,v
3vosqpph84,13.0,ray,True,ray,Friend,500.0,n
3vosqpph84,14.0,ray,True,ray,Friend,496.0,n
3vosqpph84,15.0,Sting,True,Sting,Stranger,361.0,b
3vosqpph84,16.0,Sting,True,Sting,Stranger,991.0,b
3vosqpph84,17.0,ray,True,ray,Friend,507.0,n
3vosqpph84,18.0,Sting,True,Sting,Stranger,592.0,b
3vosqpph84,19.0,Sting,True,Sting,Stranger,820.0,b
fqy71bajv6,1.0,,False,Alona,Friend,,
fqy71bajv6,2.0,Alona,True,Alona,Friend,3599.0,n
fqy71bajv6,3.0,You,False,Madonna,Stranger,2190.0,v
fqy71bajv6,4.0,You,True,You,Self,1207.0,v
fqy71bajv6,5.0,You,True,You,Self,1523.0,v
fqy71bajv6,6.0,You,True,You,Self,825.0,v
fqy71bajv6,7.0,Madonna,True,Madonna,Stranger,1376.0,b
fqy71bajv6,8.0,You,True,You,Self,656.0,v
fqy71bajv6,9.0,You,True,You,Self,1007.0,v
fqy71bajv6,10.0,You,True,You,Self,754.0,v
fqy71bajv6,11.0,Madonna,True,Madonna,Stranger,820.0,b
fqy71bajv6,12.0,You,True,You,Self,673.0,v
fqy71bajv6,13.0,Alona,True,Alona,Friend,776.0,n
fqy71bajv6,14.0,You,False,Madonna,Stranger,863.0,v
fqy71bajv6,15.0,You,True,You,Self,929.0,v
fqy71bajv6,16.0,Madonna,True,Madonna,Stranger,1732.0,b
fqy71bajv6,17.0,Alona,True,Alona,Friend,861.0,n
fqy71bajv6,18.0,You,True,You,Self,2267.0,v
fqy71bajv6,19.0,Madonna,True,Madonna,Stranger,1626.0,b
fqy71bajv6,20.0,Alona,True,Alona,Friend,723.0,n
fqy71bajv6,21.0,Madonna,True,Madonna,Stranger,957.0,b
fqy71bajv6,22.0,You,True,You,Self,870.0,v
fqy71bajv6,23.0,Alona,True,Alona,Friend,1596.0,n
fqy71bajv6,24.0,You,True,You,Self,875.0,v
fqy71bajv6,25.0,Madonna,True,Madonna,Stranger,655.0,b
fqy71bajv6,26.0,Alona,True,Alona,Friend,669.0,n
fqy71bajv6,27.0,Madonna,True,Madonna,Stranger,2038.0,b
fqy71bajv6,28.0,You,True,You,Self,737.0,v
fqy71bajv6,29.0,Alona,True,Alona,Friend,710.0,n
fqy71bajv6,30.0,Madonna,True,Madonna,Stranger,850.0,b
fqy71bajv6,31.0,Madonna,True,Madonna,Stranger,549.0,b
fqy71bajv6,32.0,Madonna,True,Madonna,Stranger,666.0,b
fqy71bajv6,33.0,You,True,You,Self,863.0,v
sx9kmgaj4y,1.0,Vous,True,Vous,Self,2031.0,v
sx9kmgaj4y,2.0,Eminem,True,Eminem,Stranger,999.0,b
sx9kmgaj4y,3.0,Vous,True,Vous,Self,658.0,v
sx9kmgaj4y,4.0,xxx,True,xxx,Friend,529.0,n
sx9kmgaj4y,5.0,Vous,True,Vous,Self,612.0,v
sx9kmgaj4y,6.0,xxx,True,xxx,Friend,664.0,n
sx9kmgaj4y,7.0,Vous,True,Vous,Self,724.0,v
sx9kmgaj4y,8.0,xxx,True,xxx,Friend,1240.0,n
sx9kmgaj4y,9.0,Eminem,True,Eminem,Stranger,717.0,b
sx9kmgaj4y,10.0,Eminem,True,Eminem,Stranger,499.0,b
sx9kmgaj4y,11.0,Vous,True,Vous,Self,901.0,v
sx9kmgaj4y,12.0,xxx,True,xxx,Friend,613.0,n
sx9kmgaj4y,13.0,Eminem,True,Eminem,Stranger,905.0,b
sx9kmgaj4y,14.0,Vous,True,Vous,Self,539.0,v
sx9kmgaj4y,15.0,xxx,True,xxx,Friend,750.0,n
sx9kmgaj4y,16.0,Vous,True,Vous,Self,856.0,v
sx9kmgaj4y,17.0,xxx,True,xxx,Friend,1304.0,n
sx9kmgaj4y,18.0,xxx,True,xxx,Friend,572.0,n
sx9kmgaj4y,19.0,xxx,True,xxx,Friend,517.0,n
ue57u9arlj,1.0,Rihanna,True,Rihanna,Stranger,2104.0,b
ue57u9arlj,2.0,cris,True,cris,Friend,921.0,n
ue57u9arlj,3.0,Rihanna,True,Rihanna,Stranger,806.0,b
ue57u9arlj,4.0,cris,True,cris,Friend,677.0,n
ue57u9arlj,5.0,cris,True,cris,Friend,768.0,n
ue57u9arlj,6.0,Vous,True,Vous,Self,697.0,v
ue57u9arlj,7.0,cris,True,cris,Friend,634.0,n
ue57u9arlj,8.0,cris,True,cris,Friend,951.0,n
ue57u9arlj,9.0,Vous,True,Vous,Self,884.0,v
ue57u9arlj,10.0,Rihanna,True,Rihanna,Stranger,623.0,b
ue57u9arlj,11.0,cris,True,cris,Friend,728.0,n
ue57u9arlj,12.0,cris,True,cris,Friend,615.0,n
ue57u9arlj,13.0,cris,True,cris,Friend,511.0,n
ue57u9arlj,14.0,Rihanna,True,Rihanna,Stranger,788.0,b
ue57u9arlj,15.0,Rihanna,True,Rihanna,Stranger,484.0,b
ue57u9arlj,16.0,Rihanna,True,Rihanna,Stranger,471.0,b
ue57u9arlj,17.0,Vous,True,Vous,Self,490.0,v
ue57u9arlj,18.0,cris,True,cris,Friend,644.0,n
ue57u9arlj,19.0,cris,True,cris,Friend,409.0,n
9buso7t050,1.0,xxx,True,xxx,Friend,1361.0,n
9buso7t050,2.0,xxx,True,xxx,Friend,1146.0,n
9buso7t050,3.0,You,False,Shakira,Stranger,1007.0,v
9buso7t050,4.0,You,True,You,Self,602.0,v
9buso7t050,5.0,xxx,True,xxx,Friend,944.0,n
9buso7t050,6.0,Shakira,True,Shakira,Stranger,943.0,b
9buso7t050,7.0,xxx,True,xxx,Friend,581.0,n
9buso7t050,8.0,Shakira,True,Shakira,Stranger,523.0,b
9buso7t050,9.0,Shakira,True,Shakira,Stranger,593.0,b
9buso7t050,10.0,You,True,You,Self,593.0,v
9buso7t050,11.0,Shakira,False,You,Self,662.0,b
9buso7t050,12.0,Shakira,True,Shakira,Stranger,534.0,b
9buso7t050,13.0,xxx,True,xxx,Friend,563.0,n
9buso7t050,14.0,You,True,You,Self,394.0,v
9buso7t050,15.0,Shakira,True,Shakira,Stranger,882.0,b
9buso7t050,16.0,You,True,You,Self,433.0,v
9buso7t050,17.0,You,True,You,Self,1148.0,v
9buso7t050,18.0,Shakira,True,Shakira,Stranger,441.0,b
9buso7t050,19.0,You,True,You,Self,933.0,v
9buso7t050,20.0,Shakira,True,Shakira,Stranger,576.0,b
9buso7t050,21.0,You,True,You,Self,512.0,v
9buso7t050,22.0,Shakira,True,Shakira,Stranger,526.0,b
9buso7t050,23.0,You,True,You,Self,550.0,v
9buso7t050,24.0,Shakira,False,You,Self,659.0,b
9buso7t050,25.0,You,True,You,Self,793.0,v
9buso7t050,26.0,You,True,You,Self,593.0,v
9buso7t050,27.0,You,True,You,Self,378.0,v
9buso7t050,28.0,xxx,True,xxx,Friend,581.0,n
9buso7t050,29.0,xxx,True,xxx,Friend,463.0,n
9buso7t050,30.0,Shakira,True,Shakira,Stranger,1419.0,b
9buso7t050,31.0,Shakira,True,Shakira,Stranger,614.0,b
9buso7t050,32.0,xxx,True,xxx,Friend,590.0,n
9buso7t050,33.0,You,True,You,Self,581.0,v
9buso7t050,34.0,You,True,You,Self,483.0,v
9buso7t050,35.0,Shakira,True,Shakira,Stranger,922.0,b
9buso7t050,36.0,xxx,True,xxx,Friend,505.0,n
9buso7t050,37.0,xxx,True,xxx,Friend,478.0,n
9buso7t050,38.0,Shakira,True,Shakira,Stranger,1248.0,b
9buso7t050,39.0,xxx,True,xxx,Friend,551.0,n
9buso7t050,40.0,Shakira,True,Shakira,Stranger,593.0,b
9buso7t050,41.0,You,True,You,Self,516.0,v
9buso7t050,42.0,xxx,True,xxx,Friend,508.0,n
9buso7t050,43.0,You,True,You,Self,1040.0,v
veqzcl1wep,1.0,Adonia,True,Adonia,Friend,1151.0,n
veqzcl1wep,2.0,Vous,True,Vous,Self,887.0,v
veqzcl1wep,3.0,Adonia,True,Adonia,Friend,864.0,n
veqzcl1wep,4.0,Adonia,True,Adonia,Friend,534.0,n
veqzcl1wep,5.0,Vous,True,Vous,Self,374.0,v
veqzcl1wep,6.0,Vous,True,Vous,Self,316.0,v
veqzcl1wep,7.0,Vous,True,Vous,Self,285.0,v
veqzcl1wep,8.0,Pink,True,Pink,Stranger,402.0,b
veqzcl1wep,9.0,Adonia,False,Vous,Self,369.0,n
veqzcl1wep,10.0,Pink,True,Pink,Stranger,502.0,b
veqzcl1wep,11.0,Adonia,False,Pink,Stranger,511.0,n
veqzcl1wep,12.0,Pink,True,Pink,Stranger,484.0,b
veqzcl1wep,13.0,Vous,True,Vous,Self,478.0,v
veqzcl1wep,14.0,Pink,True,Pink,Stranger,438.0,b
veqzcl1wep,15.0,Vous,True,Vous,Self,446.0,v
veqzcl1wep,16.0,Adonia,True,Adonia,Friend,444.0,n
veqzcl1wep,17.0,Adonia,True,Adonia,Friend,411.0,n
veqzcl1wep,18.0,Vous,True,Vous,Self,532.0,v
veqzcl1wep,19.0,Pink,True,Pink,Stranger,409.0,b
veqzcl1wep,20.0,Vous,False,Adonia,Friend,434.0,v
veqzcl1wep,21.0,Pink,True,Pink,Stranger,611.0,b
veqzcl1wep,22.0,Vous,True,Vous,Self,410.0,v
veqzcl1wep,23.0,Pink,True,Pink,Stranger,562.0,b
veqzcl1wep,24.0,Adonia,True,Adonia,Friend,499.0,n
veqzcl1wep,25.0,Adonia,True,Adonia,Friend,346.0,n
veqzcl1wep,26.0,Adonia,True,Adonia,Friend,301.0,n
veqzcl1wep,27.0,Vous,True,Vous,Self,510.0,v
veqzcl1wep,28.0,Adonia,True,Adonia,Friend,571.0,n
veqzcl1wep,29.0,Vous,True,Vous,Self,807.0,v
veqzcl1wep,30.0,Pink,True,Pink,Stranger,578.0,b
veqzcl1wep,31.0,Pink,True,Pink,Stranger,385.0,b
veqzcl1wep,32.0,Adonia,True,Adonia,Friend,484.0,n
veqzcl1wep,33.0,Pink,True,Pink,Stranger,727.0,b
veqzcl1wep,34.0,Vous,True,Vous,Self,537.0,v
veqzcl1wep,35.0,Adonia,True,Adonia,Friend,452.0,n
veqzcl1wep,36.0,Adonia,True,Adonia,Friend,368.0,n
veqzcl1wep,37.0,Vous,True,Vous,Self,451.0,v
veqzcl1wep,38.0,Pink,True,Pink,Stranger,370.0,b
veqzcl1wep,39.0,Pink,True,Pink,Stranger,491.0,b
2nqz6f4zpj,1.0,Shakira,False,Mia,Friend,1908.0,b
2nqz6f4zpj,2.0,Shakira,True,Shakira,Stranger,758.0,b
2nqz6f4zpj,3.0,Mia,True,Mia,Friend,684.0,n
2nqz6f4zpj,4.0,Mia,True,Mia,Friend,587.0,n
2nqz6f4zpj,5.0,Shakira,True,Shakira,Stranger,454.0,b
2nqz6f4zpj,6.0,Mia,True,Mia,Friend,535.0,n
2nqz6f4zpj,7.0,Shakira,True,Shakira,Stranger,529.0,b
2nqz6f4zpj,8.0,You,True,You,Self,418.0,v
2nqz6f4zpj,9.0,You,True,You,Self,416.0,v
2nqz6f4zpj,10.0,Shakira,True,Shakira,Stranger,542.0,b
2nqz6f4zpj,11.0,Shakira,True,Shakira,Stranger,415.0,b
2nqz6f4zpj,12.0,Shakira,True,Shakira,Stranger,484.0,b
2nqz6f4zpj,13.0,Mia,True,Mia,Friend,882.0,n
2nqz6f4zpj,14.0,Mia,True,Mia,Friend,408.0,n
2nqz6f4zpj,15.0,Shakira,True,Shakira,Stranger,490.0,b
2nqz6f4zpj,16.0,You,True,You,Self,575.0,v
2nqz6f4zpj,17.0,Mia,True,Mia,Friend,623.0,n
2nqz6f4zpj,18.0,Shakira,True,Shakira,Stranger,485.0,b
2nqz6f4zpj,19.0,You,True,You,Self,1095.0,v
2nqz6f4zpj,20.0,You,True,You,Self,380.0,v
2nqz6f4zpj,325.0,You,True,You,Self,4538.0,v
0uouk7qssy,1.0,,False,You,Self,,
0uouk7qssy,2.0,Elvis,True,Elvis,Stranger,1731.0,b
0uouk7qssy,3.0,Sthe,True,Sthe,Friend,1077.0,n
0uouk7qssy,4.0,Elvis,True,Elvis,Stranger,825.0,b
0uouk7qssy,5.0,You,True,You,Self,884.0,v
0uouk7qssy,6.0,Elvis,True,Elvis,Stranger,970.0,b
0uouk7qssy,7.0,Sthe,True,Sthe,Friend,502.0,n
0uouk7qssy,8.0,Sthe,True,Sthe,Friend,830.0,n
0uouk7qssy,9.0,Elvis,True,Elvis,Stranger,736.0,b
0uouk7qssy,10.0,Elvis,True,Elvis,Stranger,560.0,b
0uouk7qssy,11.0,Sthe,True,Sthe,Friend,623.0,n
0uouk7qssy,12.0,Sthe,True,Sthe,Friend,867.0,n
0uouk7qssy,13.0,Sthe,True,Sthe,Friend,506.0,n
0uouk7qssy,14.0,Sthe,True,Sthe,Friend,524.0,n
0uouk7qssy,15.0,You,True,You,Self,887.0,v
0uouk7qssy,16.0,You,True,You,Self,574.0,v
0uouk7qssy,17.0,Elvis,True,Elvis,Stranger,495.0,b
0uouk7qssy,18.0,You,True,You,Self,632.0,v
0uouk7qssy,19.0,You,True,You,Self,667.0,v
0uouk7qssy,20.0,Elvis,True,Elvis,Stranger,887.0,b
0u5okhrpdu,1.0,You,True,You,Self,1916.0,v
0u5okhrpdu,2.0,Wendy,True,Wendy,Friend,1237.0,n
0u5okhrpdu,3.0,You,True,You,Self,513.0,v
0u5okhrpdu,4.0,You,True,You,Self,609.0,v
0u5okhrpdu,5.0,Beyonce,True,Beyonce,Stranger,403.0,b
0u5okhrpdu,6.0,Wendy,True,Wendy,Friend,502.0,n
0u5okhrpdu,7.0,Wendy,True,Wendy,Friend,406.0,n
0u5okhrpdu,8.0,You,True,You,Self,527.0,v
0u5okhrpdu,9.0,Beyonce,True,Beyonce,Stranger,425.0,b
0u5okhrpdu,10.0,Beyonce,True,Beyonce,Stranger,491.0,b
0u5okhrpdu,11.0,Beyonce,True,Beyonce,Stranger,361.0,b
0u5okhrpdu,12.0,Beyonce,True,Beyonce,Stranger,351.0,b
0u5okhrpdu,13.0,Wendy,True,Wendy,Friend,570.0,n
0u5okhrpdu,14.0,Wendy,True,Wendy,Friend,583.0,n
0u5okhrpdu,15.0,Beyonce,True,Beyonce,Stranger,481.0,b
0u5okhrpdu,16.0,Beyonce,False,Wendy,Friend,377.0,b
0u5okhrpdu,17.0,Wendy,True,Wendy,Friend,547.0,n
0u5okhrpdu,18.0,Beyonce,True,Beyonce,Stranger,390.0,b
0u5okhrpdu,19.0,Wendy,True,Wendy,Friend,480.0,n
0u5okhrpdu,20.0,Beyonce,True,Beyonce,Stranger,464.0,b
0u5okhrpdu,21.0,Wendy,True,Wendy,Friend,460.0,n
0u5okhrpdu,22.0,Beyonce,True,Beyonce,Stranger,477.0,b
0u5okhrpdu,23.0,Beyonce,True,Beyonce,Stranger,439.0,b
0u5okhrpdu,24.0,Beyonce,True,Beyonce,Stranger,426.0,b
0u5okhrpdu,25.0,Beyonce,True,Beyonce,Stranger,513.0,b
0u5okhrpdu,26.0,Wendy,True,Wendy,Friend,428.0,n
0u5okhrpdu,27.0,You,True,You,Self,526.0,v
0u5okhrpdu,28.0,Wendy,True,Wendy,Friend,790.0,n
0u5okhrpdu,29.0,Wendy,True,Wendy,Friend,604.0,n
0u5okhrpdu,30.0,You,True,You,Self,470.0,v
0u5okhrpdu,31.0,You,True,You,Self,867.0,v
0u5okhrpdu,32.0,Wendy,True,Wendy,Friend,514.0,n
0u5okhrpdu,33.0,Beyonce,True,Beyonce,Stranger,621.0,b
0u5okhrpdu,34.0,Beyonce,True,Beyonce,Stranger,456.0,b
0u5okhrpdu,35.0,Beyonce,True,Beyonce,Stranger,544.0,b
gb480fgn5a,1.0,Eminem,True,Eminem,Stranger,3379.0,b
gb480fgn5a,2.0,You,True,You,Self,1607.0,v
gb480fgn5a,3.0,Eminem,True,Eminem,Stranger,1724.0,b
gb480fgn5a,4.0,Eminem,True,Eminem,Stranger,648.0,b
gb480fgn5a,5.0,You,True,You,Self,989.0,v
gb480fgn5a,6.0,Bartek,True,Bartek,Friend,444.0,n
gb480fgn5a,7.0,You,True,You,Self,787.0,v
gb480fgn5a,8.0,You,True,You,Self,570.0,v
gb480fgn5a,9.0,You,True,You,Self,722.0,v
gb480fgn5a,10.0,You,True,You,Self,503.0,v
gb480fgn5a,11.0,Eminem,True,Eminem,Stranger,487.0,b
gb480fgn5a,12.0,Eminem,True,Eminem,Stranger,433.0,b
gb480fgn5a,13.0,Bartek,True,Bartek,Friend,492.0,n
gb480fgn5a,14.0,You,True,You,Self,607.0,v
gb480fgn5a,15.0,Bartek,True,Bartek,Friend,690.0,n
gb480fgn5a,16.0,You,True,You,Self,636.0,v
gb480fgn5a,17.0,Bartek,True,Bartek,Friend,572.0,n
gb480fgn5a,18.0,Eminem,True,Eminem,Stranger,721.0,b
gb480fgn5a,19.0,You,True,You,Self,701.0,v
kf6zle9vxe,1.0,Beyonce,True,Beyonce,Stranger,4410.0,b
kf6zle9vxe,2.0,Tshepo,False,You,Self,1048.0,n
kf6zle9vxe,3.0,Beyonce,True,Beyonce,Stranger,779.0,b
kf6zle9vxe,4.0,You,True,You,Self,681.0,v
kf6zle9vxe,5.0,Beyonce,True,Beyonce,Stranger,609.0,b
kf6zle9vxe,6.0,Tshepo,True,Tshepo,Friend,641.0,n
kf6zle9vxe,7.0,Tshepo,True,Tshepo,Friend,1259.0,n
kf6zle9vxe,8.0,You,True,You,Self,1476.0,v
kf6zle9vxe,9.0,Beyonce,True,Beyonce,Stranger,840.0,b
kf6zle9vxe,10.0,Beyonce,True,Beyonce,Stranger,855.0,b
kf6zle9vxe,11.0,You,True,You,Self,1090.0,v
kf6zle9vxe,12.0,Tshepo,True,Tshepo,Friend,666.0,n
kf6zle9vxe,13.0,Beyonce,True,Beyonce,Stranger,1034.0,b
kf6zle9vxe,14.0,You,True,You,Self,745.0,v
kf6zle9vxe,15.0,Tshepo,True,Tshepo,Friend,1774.0,n
kf6zle9vxe,16.0,,False,Beyonce,Stranger,,
kf6zle9vxe,17.0,Beyonce,True,Beyonce,Stranger,1644.0,b
kf6zle9vxe,18.0,You,True,You,Self,1266.0,v
kf6zle9vxe,19.0,Tshepo,True,Tshepo,Friend,741.0,n
kf6zle9vxe,20.0,Beyonce,True,Beyonce,Stranger,761.0,b
kf6zle9vxe,21.0,Tshepo,True,Tshepo,Friend,919.0,n
kf6zle9vxe,22.0,Beyonce,True,Beyonce,Stranger,716.0,b
kf6zle9vxe,23.0,You,True,You,Self,2278.0,v
kf6zle9vxe,24.0,Tshepo,True,Tshepo,Friend,1105.0,n
kf6zle9vxe,25.0,You,True,You,Self,960.0,v
kf6zle9vxe,26.0,Tshepo,True,Tshepo,Friend,901.0,n
kf6zle9vxe,27.0,Tshepo,True,Tshepo,Friend,741.0,n
kf6zle9vxe,28.0,You,True,You,Self,1117.0,v
kf6zle9vxe,29.0,Beyonce,True,Beyonce,Stranger,588.0,b
kf6zle9vxe,30.0,You,True,You,Self,857.0,v
kf6zle9vxe,31.0,You,True,You,Self,1957.0,v
kf6zle9vxe,32.0,Beyonce,True,Beyonce,Stranger,721.0,b
kf6zle9vxe,33.0,Tshepo,True,Tshepo,Friend,511.0,n
kf6zle9vxe,34.0,You,True,You,Self,1821.0,v
kf6zle9vxe,35.0,Beyonce,True,Beyonce,Stranger,953.0,b
x642abd37o,1.0,,False,Rihanna,Stranger,,
x642abd37o,2.0,You,True,You,Self,1545.0,v
x642abd37o,3.0,Pabz,True,Pabz,Friend,847.0,n
x642abd37o,4.0,You,False,Pabz,Friend,997.0,v
x642abd37o,5.0,You,True,You,Self,573.0,v
x642abd37o,6.0,Pabz,True,Pabz,Friend,441.0,n
x642abd37o,7.0,Rihanna,True,Rihanna,Stranger,693.0,b
x642abd37o,8.0,You,True,You,Self,1193.0,v
x642abd37o,9.0,You,True,You,Self,753.0,v
x642abd37o,10.0,Pabz,True,Pabz,Friend,962.0,n
x642abd37o,11.0,Rihanna,True,Rihanna,Stranger,1117.0,b
x642abd37o,12.0,You,True,You,Self,1304.0,v
x642abd37o,13.0,You,True,You,Self,652.0,v
x642abd37o,14.0,Rihanna,True,Rihanna,Stranger,1517.0,b
x642abd37o,15.0,You,True,You,Self,614.0,v
x642abd37o,16.0,Rihanna,True,Rihanna,Stranger,704.0,b
x642abd37o,17.0,You,True,You,Self,721.0,v
x642abd37o,18.0,You,True,You,Self,647.0,v
x642abd37o,19.0,Rihanna,True,Rihanna,Stranger,586.0,b
x642abd37o,20.0,Pabz,True,Pabz,Friend,496.0,n
x642abd37o,21.0,You,True,You,Self,984.0,v
x642abd37o,22.0,You,True,You,Self,615.0,v
x642abd37o,23.0,Pabz,True,Pabz,Friend,724.0,n
km4r9pss22,1.0,,False,Kuba,Friend,,
km4r9pss22,2.0,You,True,You,Self,5046.0,v
km4r9pss22,3.0,Eminem,False,Kuba,Friend,5043.0,b
km4r9pss22,4.0,Eminem,True,Eminem,Stranger,5334.0,b
km4r9pss22,5.0,You,True,You,Self,2680.0,v
km4r9pss22,6.0,Kuba,True,Kuba,Friend,2550.0,n
km4r9pss22,7.0,You,True,You,Self,1944.0,v
km4r9pss22,8.0,You,True,You,Self,2749.0,v
km4r9pss22,9.0,Eminem,True,Eminem,Stranger,1679.0,b
km4r9pss22,10.0,You,True,You,Self,1672.0,v
km4r9pss22,11.0,You,True,You,Self,1724.0,v
km4r9pss22,12.0,Eminem,True,Eminem,Stranger,1360.0,b
km4r9pss22,13.0,Kuba,True,Kuba,Friend,1401.0,n
km4r9pss22,14.0,Kuba,True,Kuba,Friend,1250.0,n
km4r9pss22,15.0,You,True,You,Self,1165.0,v
km4r9pss22,16.0,You,True,You,Self,1275.0,v
km4r9pss22,17.0,Eminem,True,Eminem,Stranger,1740.0,b
km4r9pss22,18.0,Kuba,True,Kuba,Friend,1599.0,n
km4r9pss22,19.0,You,True,You,Self,1554.0,v
km4r9pss22,20.0,Eminem,True,Eminem,Stranger,940.0,b
km4r9pss22,21.0,You,True,You,Self,1015.0,v
km4r9pss22,22.0,Kuba,True,Kuba,Friend,891.0,n
una9c3lodk,1.0,You,True,You,Self,2979.0,v
una9c3lodk,2.0,You,True,You,Self,1150.0,v
una9c3lodk,3.0,Niki,True,Niki,Friend,1583.0,n
una9c3lodk,4.0,Beyonce,True,Beyonce,Stranger,681.0,b
una9c3lodk,5.0,Beyonce,True,Beyonce,Stranger,801.0,b
una9c3lodk,6.0,Niki,True,Niki,Friend,555.0,n
una9c3lodk,7.0,You,True,You,Self,628.0,v
una9c3lodk,8.0,You,True,You,Self,1003.0,v
una9c3lodk,9.0,Niki,True,Niki,Friend,652.0,n
una9c3lodk,10.0,You,True,You,Self,1038.0,v
una9c3lodk,11.0,Beyonce,True,Beyonce,Stranger,547.0,b
una9c3lodk,12.0,Beyonce,True,Beyonce,Stranger,484.0,b
una9c3lodk,13.0,Beyonce,True,Beyonce,Stranger,575.0,b
una9c3lodk,14.0,Beyonce,True,Beyonce,Stranger,568.0,b
una9c3lodk,15.0,Beyonce,True,Beyonce,Stranger,712.0,b
una9c3lodk,16.0,Niki,True,Niki,Friend,649.0,n
una9c3lodk,17.0,Beyonce,True,Beyonce,Stranger,629.0,b
una9c3lodk,18.0,Beyonce,True,Beyonce,Stranger,731.0,b
una9c3lodk,19.0,You,True,You,Self,526.0,v
sg0t2p08et,1.0,Eminem,True,Eminem,Stranger,3577.0,b
sg0t2p08et,2.0,You,True,You,Self,1011.0,v
sg0t2p08et,3.0,Daniel,True,Daniel,Friend,1144.0,n
sg0t2p08et,4.0,Daniel,True,Daniel,Friend,687.0,n
sg0t2p08et,5.0,You,True,You,Self,913.0,v
sg0t2p08et,6.0,Daniel,True,Daniel,Friend,569.0,n
sg0t2p08et,7.0,You,True,You,Self,1273.0,v
sg0t2p08et,8.0,Eminem,False,Daniel,Friend,2617.0,b
sg0t2p08et,9.0,Eminem,True,Eminem,Stranger,859.0,b
sg0t2p08et,10.0,Eminem,True,Eminem,Stranger,832.0,b
sg0t2p08et,11.0,You,True,You,Self,627.0,v
sg0t2p08et,12.0,Daniel,True,Daniel,Friend,442.0,n
sg0t2p08et,13.0,Eminem,True,Eminem,Stranger,3118.0,b
sg0t2p08et,14.0,You,True,You,Self,894.0,v
sg0t2p08et,15.0,Daniel,True,Daniel,Friend,914.0,n
sg0t2p08et,16.0,Daniel,True,Daniel,Friend,1137.0,n
sg0t2p08et,17.0,Daniel,True,Daniel,Friend,643.0,n
sg0t2p08et,18.0,Daniel,True,Daniel,Friend,517.0,n
sg0t2p08et,19.0,Daniel,True,Daniel,Friend,555.0,n
sg0t2p08et,20.0,You,True,You,Self,736.0,v
sg0t2p08et,21.0,You,True,You,Self,1416.0,v
sg0t2p08et,22.0,You,True,You,Self,447.0,v
sg0t2p08et,23.0,Eminem,True,Eminem,Stranger,568.0,b
sg0t2p08et,24.0,Eminem,True,Eminem,Stranger,623.0,b
sg0t2p08et,25.0,Daniel,True,Daniel,Friend,451.0,n
sg0t2p08et,26.0,Eminem,False,You,Self,598.0,b
sg0t2p08et,27.0,Eminem,True,Eminem,Stranger,1054.0,b
sg0t2p08et,28.0,Daniel,True,Daniel,Friend,1009.0,n
sg0t2p08et,29.0,Daniel,True,Daniel,Friend,958.0,n
sg0t2p08et,30.0,Eminem,True,Eminem,Stranger,809.0,b
sg0t2p08et,31.0,Daniel,True,Daniel,Friend,1013.0,n
sg0t2p08et,32.0,Daniel,True,Daniel,Friend,1418.0,n
sg0t2p08et,33.0,Eminem,True,Eminem,Stranger,659.0,b
sg0t2p08et,34.0,You,True,You,Self,524.0,v
sg0t2p08et,35.0,Eminem,True,Eminem,Stranger,868.0,b
sg0t2p08et,36.0,Daniel,False,You,Self,919.0,n
sg0t2p08et,37.0,Eminem,True,Eminem,Stranger,854.0,b
sg0t2p08et,38.0,You,True,You,Self,614.0,v
sg0t2p08et,39.0,Eminem,True,Eminem,Stranger,951.0,b
sg0t2p08et,40.0,Eminem,True,Eminem,Stranger,945.0,b
sg0t2p08et,41.0,Daniel,True,Daniel,Friend,1306.0,n
sg0t2p08et,42.0,You,True,You,Self,1474.0,v
sg0t2p08et,43.0,Daniel,True,Daniel,Friend,1201.0,n
sg0t2p08et,44.0,You,True,You,Self,1449.0,v
sg0t2p08et,45.0,Eminem,True,Eminem,Stranger,1240.0,b
sg0t2p08et,46.0,You,True,You,Self,1096.0,v
sg0t2p08et,47.0,Eminem,True,Eminem,Stranger,1173.0,b
sg0t2p08et,48.0,Daniel,True,Daniel,Friend,843.0,n
sg0t2p08et,49.0,Daniel,True,Daniel,Friend,746.0,n
sg0t2p08et,50.0,You,True,You,Self,399.0,v
sg0t2p08et,51.0,You,True,You,Self,590.0,v
sg0t2p08et,52.0,Eminem,True,Eminem,Stranger,444.0,b
sg0t2p08et,53.0,You,True,You,Self,560.0,v
sg0t2p08et,54.0,Eminem,True,Eminem,Stranger,663.0,b
sg0t2p08et,55.0,You,True,You,Self,566.0,v
rqtdu85y4b,1.0,,False,Asa,Friend,,
rqtdu85y4b,2.0,You,True,You,Self,3150.0,v
rqtdu85y4b,3.0,Beyonce,True,Beyonce,Stranger,2148.0,b
rqtdu85y4b,4.0,Beyonce,True,Beyonce,Stranger,1235.0,b
rqtdu85y4b,5.0,You,True,You,Self,1380.0,v
rqtdu85y4b,6.0,Asa,True,Asa,Friend,1175.0,n
rqtdu85y4b,7.0,You,True,You,Self,902.0,v
rqtdu85y4b,8.0,Beyonce,False,Asa,Friend,789.0,b
rqtdu85y4b,9.0,Beyonce,True,Beyonce,Stranger,917.0,b
rqtdu85y4b,10.0,Beyonce,True,Beyonce,Stranger,742.0,b
rqtdu85y4b,11.0,Beyonce,True,Beyonce,Stranger,700.0,b
rqtdu85y4b,12.0,Beyonce,True,Beyonce,Stranger,621.0,b
rqtdu85y4b,13.0,Beyonce,True,Beyonce,Stranger,726.0,b
rqtdu85y4b,14.0,You,True,You,Self,669.0,v
rqtdu85y4b,15.0,You,True,You,Self,661.0,v
rqtdu85y4b,16.0,Asa,True,Asa,Friend,678.0,n
rqtdu85y4b,17.0,You,True,You,Self,605.0,v
rqtdu85y4b,18.0,You,True,You,Self,734.0,v
rqtdu85y4b,19.0,Asa,True,Asa,Friend,502.0,n
rqtdu85y4b,20.0,You,True,You,Self,598.0,v
rqtdu85y4b,21.0,Asa,True,Asa,Friend,557.0,n
rqtdu85y4b,22.0,Beyonce,True,Beyonce,Stranger,661.0,b
rqtdu85y4b,23.0,Asa,True,Asa,Friend,558.0,n
rqtdu85y4b,24.0,You,True,You,Self,629.0,v
rqtdu85y4b,25.0,Beyonce,True,Beyonce,Stranger,636.0,b
rqtdu85y4b,26.0,Beyonce,True,Beyonce,Stranger,591.0,b
rqtdu85y4b,27.0,Asa,True,Asa,Friend,646.0,n
gf04fuxx3w,1.0,You,False,Dora,Friend,5295.0,v
gf04fuxx3w,2.0,You,True,You,Self,4262.0,v
gf04fuxx3w,3.0,Pink,True,Pink,Stranger,5031.0,b
gf04fuxx3w,4.0,You,True,You,Self,1484.0,v
gf04fuxx3w,5.0,Pink,True,Pink,Stranger,1575.0,b
gf04fuxx3w,6.0,Dora,True,Dora,Friend,1732.0,n
gf04fuxx3w,7.0,Pink,False,Dora,Friend,4528.0,b
gf04fuxx3w,8.0,Dora,True,Dora,Friend,1782.0,n
gf04fuxx3w,9.0,You,True,You,Self,1293.0,v
gf04fuxx3w,10.0,,False,You,Self,,
gf04fuxx3w,11.0,,False,Dora,Friend,,
gf04fuxx3w,12.0,You,True,You,Self,5163.0,v
gf04fuxx3w,13.0,Pink,True,Pink,Stranger,1342.0,b
gf04fuxx3w,14.0,You,True,You,Self,715.0,v
gf04fuxx3w,15.0,Dora,True,Dora,Friend,716.0,n
gf04fuxx3w,16.0,You,True,You,Self,1180.0,v
gf04fuxx3w,17.0,Dora,True,Dora,Friend,958.0,n
gf04fuxx3w,18.0,Pink,True,Pink,Stranger,1735.0,b
gf04fuxx3w,19.0,Pink,True,Pink,Stranger,613.0,b
gf04fuxx3w,20.0,You,True,You,Self,1972.0,v
gf04fuxx3w,21.0,Pink,True,Pink,Stranger,1236.0,b
gf04fuxx3w,22.0,Pink,True,Pink,Stranger,593.0,b
gf04fuxx3w,23.0,Pink,True,Pink,Stranger,1140.0,b
gf04fuxx3w,24.0,Dora,True,Dora,Friend,817.0,n
gf04fuxx3w,25.0,Pink,True,Pink,Stranger,803.0,b
gf04fuxx3w,26.0,Dora,True,Dora,Friend,2015.0,n
gf04fuxx3w,27.0,You,True,You,Self,794.0,v
gf04fuxx3w,28.0,Pink,True,Pink,Stranger,1451.0,b
gf04fuxx3w,29.0,Dora,False,You,Self,1319.0,n
gf04fuxx3w,30.0,Pink,True,Pink,Stranger,702.0,b
gf04fuxx3w,31.0,You,True,You,Self,1319.0,v
gf04fuxx3w,32.0,Dora,True,Dora,Friend,1134.0,n
gf04fuxx3w,33.0,Dora,True,Dora,Friend,703.0,n
gf04fuxx3w,34.0,You,True,You,Self,905.0,v
gf04fuxx3w,35.0,You,True,You,Self,1285.0,v
gf04fuxx3w,36.0,Pink,True,Pink,Stranger,1003.0,b
gf04fuxx3w,37.0,Pink,True,Pink,Stranger,562.0,b
gf04fuxx3w,38.0,Pink,True,Pink,Stranger,502.0,b
gf04fuxx3w,39.0,Dora,True,Dora,Friend,938.0,n
gf04fuxx3w,40.0,You,True,You,Self,1970.0,v
gf04fuxx3w,41.0,Pink,True,Pink,Stranger,643.0,b
gf04fuxx3w,42.0,Dora,True,Dora,Friend,658.0,n
gf04fuxx3w,43.0,Dora,True,Dora,Friend,1053.0,n
gf04fuxx3w,44.0,Dora,True,Dora,Friend,536.0,n
gf04fuxx3w,45.0,Dora,True,Dora,Friend,377.0,n
gf04fuxx3w,46.0,Pink,True,Pink,Stranger,605.0,b
gf04fuxx3w,47.0,Pink,True,Pink,Stranger,436.0,b
gf04fuxx3w,48.0,You,True,You,Self,680.0,v
oyah60q1b7,1.0,You,False,Sting,Stranger,4633.0,v
oyah60q1b7,2.0,Sting,False,You,Self,962.0,b
oyah60q1b7,3.0,Sting,True,Sting,Stranger,2598.0,b
oyah60q1b7,4.0,Sting,False,You,Self,802.0,b
oyah60q1b7,5.0,You,True,You,Self,3345.0,v
oyah60q1b7,6.0,Evan,True,Evan,Friend,1156.0,n
oyah60q1b7,7.0,You,True,You,Self,1970.0,v
oyah60q1b7,8.0,You,True,You,Self,828.0,v
oyah60q1b7,9.0,Sting,True,Sting,Stranger,731.0,b
oyah60q1b7,10.0,Evan,True,Evan,Friend,558.0,n
oyah60q1b7,11.0,You,True,You,Self,1164.0,v
oyah60q1b7,12.0,Evan,True,Evan,Friend,958.0,n
oyah60q1b7,13.0,Evan,True,Evan,Friend,592.0,n
oyah60q1b7,14.0,You,True,You,Self,825.0,v
oyah60q1b7,15.0,You,True,You,Self,650.0,v
oyah60q1b7,16.0,You,True,You,Self,793.0,v
oyah60q1b7,17.0,You,False,Sting,Stranger,395.0,v
oyah60q1b7,18.0,Sting,False,You,Self,569.0,b
oyah60q1b7,19.0,You,False,Sting,Stranger,845.0,v
oyah60q1b7,20.0,You,True,You,Self,687.0,v
oyah60q1b7,21.0,Sting,True,Sting,Stranger,669.0,b
oyah60q1b7,22.0,Sting,True,Sting,Stranger,1010.0,b
oyah60q1b7,23.0,Evan,True,Evan,Friend,783.0,n
oyah60q1b7,24.0,Sting,True,Sting,Stranger,520.0,b
oyah60q1b7,25.0,You,False,Sting,Stranger,567.0,v
oyah60q1b7,26.0,Sting,True,Sting,Stranger,985.0,b
oyah60q1b7,27.0,Evan,True,Evan,Friend,574.0,n
oyah60q1b7,28.0,Evan,True,Evan,Friend,859.0,n
oyah60q1b7,29.0,Sting,True,Sting,Stranger,631.0,b
oyah60q1b7,30.0,Sting,True,Sting,Stranger,666.0,b
oyah60q1b7,31.0,You,True,You,Self,1159.0,v
oyah60q1b7,32.0,Sting,True,Sting,Stranger,968.0,b
oyah60q1b7,33.0,Evan,True,Evan,Friend,665.0,n
oyah60q1b7,34.0,Evan,True,Evan,Friend,1348.0,n
oyah60q1b7,35.0,Sting,True,Sting,Stranger,516.0,b
oyah60q1b7,36.0,Sting,False,Evan,Friend,1038.0,b
oyah60q1b7,37.0,Sting,True,Sting,Stranger,814.0,b
oyah60q1b7,38.0,Sting,True,Sting,Stranger,626.0,b
oyah60q1b7,39.0,You,True,You,Self,587.0,v
oyah60q1b7,40.0,Evan,True,Evan,Friend,494.0,n
oyah60q1b7,41.0,Evan,True,Evan,Friend,1009.0,n
oyah60q1b7,42.0,You,True,You,Self,968.0,v
oyah60q1b7,43.0,Sting,True,Sting,Stranger,639.0,b
oyah60q1b7,44.0,Sting,True,Sting,Stranger,818.0,b
oyah60q1b7,45.0,You,True,You,Self,1290.0,v
oyah60q1b7,46.0,You,True,You,Self,623.0,v
oyah60q1b7,47.0,Sting,False,You,Self,482.0,b
oyah60q1b7,48.0,Sting,True,Sting,Stranger,1007.0,b
oyah60q1b7,49.0,You,True,You,Self,534.0,v
oyah60q1b7,50.0,You,True,You,Self,928.0,v
oyah60q1b7,51.0,You,True,You,Self,344.0,v
oyah60q1b7,52.0,Evan,True,Evan,Friend,803.0,n
oyah60q1b7,53.0,Evan,True,Evan,Friend,606.0,n
oyah60q1b7,54.0,Evan,True,Evan,Friend,953.0,n
oyah60q1b7,55.0,You,True,You,Self,568.0,v
oyah60q1b7,56.0,You,False,Evan,Friend,524.0,v
oyah60q1b7,57.0,Evan,True,Evan,Friend,789.0,n
oyah60q1b7,58.0,You,True,You,Self,725.0,v
oyah60q1b7,59.0,Sting,False,You,Self,627.0,b
oyah60q1b7,60.0,Sting,True,Sting,Stranger,679.0,b
oyah60q1b7,61.0,You,True,You,Self,636.0,v
oyah60q1b7,62.0,Sting,True,Sting,Stranger,572.0,b
oyah60q1b7,63.0,Evan,True,Evan,Friend,594.0,n
oyah60q1b7,64.0,Evan,False,You,Self,1698.0,n
oyah60q1b7,65.0,Evan,True,Evan,Friend,784.0,n
oyah60q1b7,66.0,Sting,True,Sting,Stranger,629.0,b
oyah60q1b7,67.0,Evan,True,Evan,Friend,1682.0,n
oyah60q1b7,68.0,You,False,Sting,Stranger,569.0,v
oyah60q1b7,69.0,Sting,True,Sting,Stranger,492.0,b
oyah60q1b7,70.0,Evan,True,Evan,Friend,1229.0,n
oyah60q1b7,71.0,You,True,You,Self,1213.0,v
oyah60q1b7,72.0,Evan,True,Evan,Friend,1453.0,n
oyah60q1b7,73.0,Sting,True,Sting,Stranger,626.0,b
oyah60q1b7,74.0,Evan,True,Evan,Friend,1179.0,n
oyah60q1b7,75.0,Sting,False,Evan,Friend,559.0,b
oyah60q1b7,76.0,Sting,True,Sting,Stranger,763.0,b
oyah60q1b7,77.0,Evan,True,Evan,Friend,1502.0,n
oyah60q1b7,78.0,Sting,True,Sting,Stranger,903.0,b
oyah60q1b7,79.0,Evan,True,Evan,Friend,736.0,n
oyah60q1b7,80.0,Sting,False,Evan,Friend,1266.0,b
oyah60q1b7,81.0,Sting,True,Sting,Stranger,913.0,b
oyah60q1b7,82.0,Sting,True,Sting,Stranger,1080.0,b
oyah60q1b7,83.0,You,True,You,Self,710.0,v
oyah60q1b7,84.0,Evan,True,Evan,Friend,597.0,n
oyah60q1b7,85.0,Sting,True,Sting,Stranger,1010.0,b
oyah60q1b7,86.0,Evan,True,Evan,Friend,608.0,n
oyah60q1b7,87.0,You,True,You,Self,627.0,v
oyah60q1b7,88.0,Evan,True,Evan,Friend,750.0,n
oyah60q1b7,89.0,Sting,True,Sting,Stranger,519.0,b
oyah60q1b7,90.0,Evan,True,Evan,Friend,622.0,n
oyah60q1b7,91.0,Sting,True,Sting,Stranger,434.0,b
oyah60q1b7,92.0,You,True,You,Self,504.0,v
oyah60q1b7,93.0,You,True,You,Self,790.0,v
oyah60q1b7,94.0,Evan,False,Sting,Stranger,793.0,n
oyah60q1b7,95.0,You,True,You,Self,816.0,v
oyah60q1b7,96.0,Sting,True,Sting,Stranger,706.0,b
oyah60q1b7,97.0,You,True,You,Self,552.0,v
oyah60q1b7,98.0,Evan,True,Evan,Friend,573.0,n
oyah60q1b7,99.0,Sting,True,Sting,Stranger,1300.0,b
oyah60q1b7,100.0,You,True,You,Self,803.0,v
oyah60q1b7,101.0,Sting,True,Sting,Stranger,770.0,b
oyah60q1b7,102.0,You,True,You,Self,600.0,v
oyah60q1b7,103.0,You,True,You,Self,772.0,v
oyah60q1b7,104.0,Evan,True,Evan,Friend,753.0,n
oyah60q1b7,105.0,Evan,True,Evan,Friend,621.0,n
oyah60q1b7,106.0,Evan,True,Evan,Friend,525.0,n
oyah60q1b7,107.0,Evan,True,Evan,Friend,452.0,n
oyah60q1b7,108.0,You,True,You,Self,1924.0,v
fedgy2jver,1.0,,False,You,Self,,
fedgy2jver,2.0,You,True,You,Self,3532.0,v
fedgy2jver,3.0,Rihanna,True,Rihanna,Stranger,2774.0,b
fedgy2jver,4.0,julia,True,julia,Friend,1807.0,n
fedgy2jver,5.0,Rihanna,True,Rihanna,Stranger,1956.0,b
fedgy2jver,6.0,Rihanna,True,Rihanna,Stranger,4746.0,b
fedgy2jver,7.0,julia,True,julia,Friend,2127.0,n
fedgy2jver,8.0,julia,True,julia,Friend,3559.0,n
fedgy2jver,9.0,You,True,You,Self,1986.0,v
fedgy2jver,10.0,Rihanna,True,Rihanna,Stranger,1826.0,b
fedgy2jver,11.0,julia,True,julia,Friend,1109.0,n
fedgy2jver,12.0,Rihanna,True,Rihanna,Stranger,3556.0,b
fedgy2jver,13.0,You,True,You,Self,2231.0,v
fedgy2jver,14.0,Rihanna,True,Rihanna,Stranger,1944.0,b
fedgy2jver,15.0,julia,True,julia,Friend,1321.0,n
fedgy2jver,16.0,Rihanna,True,Rihanna,Stranger,925.0,b
fedgy2jver,17.0,You,True,You,Self,954.0,v
fedgy2jver,18.0,julia,True,julia,Friend,1203.0,n
fedgy2jver,19.0,You,True,You,Self,1627.0,v
fedgy2jver,20.0,julia,True,julia,Friend,4177.0,n
t4znea6bqz,1.0,,False,You,Self,,
t4znea6bqz,2.0,Bono,True,Bono,Stranger,2671.0,b
t4znea6bqz,3.0,Bono,True,Bono,Stranger,907.0,b
t4znea6bqz,4.0,You,True,You,Self,1726.0,v
t4znea6bqz,5.0,gabriel,True,gabriel,Friend,877.0,n
t4znea6bqz,6.0,Bono,True,Bono,Stranger,1066.0,b
t4znea6bqz,7.0,Bono,True,Bono,Stranger,621.0,b
t4znea6bqz,8.0,gabriel,True,gabriel,Friend,810.0,n
t4znea6bqz,9.0,Bono,True,Bono,Stranger,802.0,b
t4znea6bqz,10.0,You,False,gabriel,Friend,1331.0,v
t4znea6bqz,11.0,You,True,You,Self,835.0,v
t4znea6bqz,12.0,gabriel,True,gabriel,Friend,602.0,n
t4znea6bqz,13.0,gabriel,True,gabriel,Friend,779.0,n
t4znea6bqz,14.0,gabriel,True,gabriel,Friend,602.0,n
t4znea6bqz,15.0,Bono,True,Bono,Stranger,779.0,b
t4znea6bqz,16.0,gabriel,True,gabriel,Friend,914.0,n
t4znea6bqz,17.0,gabriel,True,gabriel,Friend,627.0,n
t4znea6bqz,18.0,You,True,You,Self,595.0,v
t4znea6bqz,19.0,You,True,You,Self,578.0,v
t4znea6bqz,20.0,You,True,You,Self,504.0,v
t4znea6bqz,21.0,Bono,True,Bono,Stranger,564.0,b
t4znea6bqz,22.0,gabriel,True,gabriel,Friend,667.0,n
t4znea6bqz,23.0,gabriel,True,gabriel,Friend,1074.0,n
t4znea6bqz,24.0,gabriel,True,gabriel,Friend,507.0,n
t4znea6bqz,25.0,Bono,True,Bono,Stranger,675.0,b
t4znea6bqz,26.0,Bono,True,Bono,Stranger,722.0,b
t4znea6bqz,27.0,Bono,True,Bono,Stranger,483.0,b
t4znea6bqz,28.0,You,True,You,Self,595.0,v
t4znea6bqz,29.0,gabriel,True,gabriel,Friend,1218.0,n
pb49ft7g04,1.0,,False,Tom,Friend,,
pb49ft7g04,2.0,Tom,False,Rihanna,Stranger,1967.0,n
pb49ft7g04,3.0,Rihanna,True,Rihanna,Stranger,1056.0,b
pb49ft7g04,4.0,Tom,True,Tom,Friend,1242.0,n
pb49ft7g04,5.0,You,True,You,Self,474.0,v
pb49ft7g04,6.0,You,True,You,Self,596.0,v
pb49ft7g04,7.0,Rihanna,True,Rihanna,Stranger,1037.0,b
pb49ft7g04,8.0,Tom,True,Tom,Friend,842.0,n
pb49ft7g04,9.0,Rihanna,True,Rihanna,Stranger,756.0,b
pb49ft7g04,10.0,Tom,True,Tom,Friend,918.0,n
pb49ft7g04,11.0,You,True,You,Self,544.0,v
pb49ft7g04,12.0,You,True,You,Self,587.0,v
pb49ft7g04,13.0,Rihanna,True,Rihanna,Stranger,666.0,b
pb49ft7g04,14.0,Tom,True,Tom,Friend,702.0,n
pb49ft7g04,15.0,You,True,You,Self,562.0,v
pb49ft7g04,16.0,Tom,True,Tom,Friend,780.0,n
pb49ft7g04,17.0,You,True,You,Self,608.0,v
pb49ft7g04,18.0,Tom,True,Tom,Friend,566.0,n
pb49ft7g04,19.0,Rihanna,True,Rihanna,Stranger,684.0,b
pb49ft7g04,20.0,Tom,True,Tom,Friend,901.0,n
pb49ft7g04,21.0,You,True,You,Self,510.0,v
1etdqtmyjk,1.0,Seal,True,Seal,Stranger,4133.0,b
1etdqtmyjk,2.0,You,True,You,Self,2575.0,v
1etdqtmyjk,3.0,You,True,You,Self,2949.0,v
1etdqtmyjk,4.0,You,True,You,Self,872.0,v
1etdqtmyjk,5.0,Seal,True,Seal,Stranger,963.0,b
1etdqtmyjk,6.0,You,True,You,Self,654.0,v
1etdqtmyjk,7.0,Julie,True,Julie,Friend,1051.0,n
1etdqtmyjk,8.0,You,True,You,Self,1074.0,v
1etdqtmyjk,9.0,Julie,True,Julie,Friend,1907.0,n
1etdqtmyjk,10.0,Julie,True,Julie,Friend,1123.0,n
1etdqtmyjk,11.0,Seal,True,Seal,Stranger,1230.0,b
1etdqtmyjk,12.0,You,True,You,Self,546.0,v
1etdqtmyjk,13.0,Seal,True,Seal,Stranger,1100.0,b
1etdqtmyjk,14.0,You,True,You,Self,834.0,v
1etdqtmyjk,15.0,Seal,True,Seal,Stranger,1388.0,b
1etdqtmyjk,16.0,Seal,True,Seal,Stranger,3026.0,b
1etdqtmyjk,17.0,Julie,True,Julie,Friend,728.0,n
1etdqtmyjk,18.0,Julie,True,Julie,Friend,1113.0,n
1etdqtmyjk,19.0,You,True,You,Self,1093.0,v
cwddlcvdeb,1.0,,False,Elvis,Stranger,,
cwddlcvdeb,2.0,Rob,True,Rob,Friend,3355.0,n
cwddlcvdeb,3.0,You,True,You,Self,3288.0,v
cwddlcvdeb,4.0,You,True,You,Self,2907.0,v
cwddlcvdeb,5.0,You,True,You,Self,1867.0,v
cwddlcvdeb,6.0,Rob,True,Rob,Friend,2719.0,n
cwddlcvdeb,7.0,You,True,You,Self,1906.0,v
cwddlcvdeb,8.0,You,True,You,Self,2036.0,v
cwddlcvdeb,9.0,Rob,True,Rob,Friend,2440.0,n
cwddlcvdeb,10.0,Elvis,True,Elvis,Stranger,1296.0,b
cwddlcvdeb,11.0,You,True,You,Self,738.0,v
cwddlcvdeb,12.0,You,True,You,Self,911.0,v
cwddlcvdeb,13.0,Elvis,True,Elvis,Stranger,756.0,b
cwddlcvdeb,14.0,You,True,You,Self,1467.0,v
cwddlcvdeb,15.0,Rob,True,Rob,Friend,4826.0,n
cwddlcvdeb,16.0,You,True,You,Self,1266.0,v
cwddlcvdeb,17.0,Rob,True,Rob,Friend,925.0,n
cwddlcvdeb,18.0,Elvis,True,Elvis,Stranger,961.0,b
cwddlcvdeb,19.0,Elvis,True,Elvis,Stranger,773.0,b
cwddlcvdeb,20.0,Elvis,True,Elvis,Stranger,478.0,b
xv6v1srwc7,1.0,,False,You,Self,,
xv6v1srwc7,2.0,Jesus,False,Elvis,Stranger,4060.0,n
xv6v1srwc7,3.0,Jesus,True,Jesus,Friend,3962.0,n
xv6v1srwc7,4.0,Jesus,True,Jesus,Friend,1138.0,n
xv6v1srwc7,5.0,Jesus,True,Jesus,Friend,537.0,n
xv6v1srwc7,6.0,Elvis,True,Elvis,Stranger,697.0,b
xv6v1srwc7,7.0,Elvis,False,Jesus,Friend,1291.0,b
xv6v1srwc7,8.0,Jesus,True,Jesus,Friend,489.0,n
xv6v1srwc7,9.0,You,True,You,Self,411.0,v
xv6v1srwc7,10.0,You,True,You,Self,359.0,v
xv6v1srwc7,11.0,You,True,You,Self,341.0,v
xv6v1srwc7,12.0,Jesus,True,Jesus,Friend,1811.0,n
xv6v1srwc7,13.0,Elvis,True,Elvis,Stranger,438.0,b
xv6v1srwc7,14.0,You,True,You,Self,352.0,v
xv6v1srwc7,15.0,Jesus,True,Jesus,Friend,1092.0,n
xv6v1srwc7,16.0,Elvis,True,Elvis,Stranger,1651.0,b
xv6v1srwc7,17.0,Jesus,True,Jesus,Friend,393.0,n
xv6v1srwc7,18.0,Jesus,False,Elvis,Stranger,782.0,n
xv6v1srwc7,19.0,Elvis,True,Elvis,Stranger,383.0,b
xv6v1srwc7,20.0,Jesus,True,Jesus,Friend,450.0,n
xv6v1srwc7,21.0,Elvis,True,Elvis,Stranger,374.0,b
xv6v1srwc7,22.0,Elvis,True,Elvis,Stranger,361.0,b
xv6v1srwc7,23.0,Jesus,True,Jesus,Friend,528.0,n
xv6v1srwc7,24.0,Elvis,True,Elvis,Stranger,754.0,b
xv6v1srwc7,25.0,You,True,You,Self,755.0,v
xv6v1srwc7,26.0,You,True,You,Self,689.0,v
xv6v1srwc7,27.0,Jesus,False,Elvis,Stranger,624.0,n
xv6v1srwc7,28.0,Jesus,False,Elvis,Stranger,420.0,n
xv6v1srwc7,29.0,Elvis,True,Elvis,Stranger,411.0,b
xv6v1srwc7,30.0,Elvis,True,Elvis,Stranger,338.0,b
xv6v1srwc7,31.0,You,True,You,Self,387.0,v
xv6v1srwc7,32.0,Elvis,True,Elvis,Stranger,439.0,b
xv6v1srwc7,33.0,Jesus,True,Jesus,Friend,364.0,n
xv6v1srwc7,34.0,Elvis,True,Elvis,Stranger,537.0,b
xv6v1srwc7,35.0,Elvis,True,Elvis,Stranger,934.0,b
xv6v1srwc7,36.0,Elvis,True,Elvis,Stranger,533.0,b
xv6v1srwc7,37.0,Elvis,True,Elvis,Stranger,514.0,b
xv6v1srwc7,38.0,Jesus,True,Jesus,Friend,379.0,n
xv6v1srwc7,39.0,Jesus,True,Jesus,Friend,552.0,n
xv6v1srwc7,40.0,Jesus,True,Jesus,Friend,430.0,n
xv6v1srwc7,41.0,You,True,You,Self,638.0,v
xv6v1srwc7,42.0,Elvis,True,Elvis,Stranger,1604.0,b
xv6v1srwc7,43.0,Jesus,True,Jesus,Friend,379.0,n
xv6v1srwc7,44.0,Jesus,True,Jesus,Friend,351.0,n
xv6v1srwc7,45.0,Jesus,True,Jesus,Friend,359.0,n
xv6v1srwc7,46.0,You,True,You,Self,810.0,v
xv6v1srwc7,47.0,Elvis,False,Jesus,Friend,443.0,b
xv6v1srwc7,48.0,Jesus,True,Jesus,Friend,384.0,n
xv6v1srwc7,49.0,Jesus,True,Jesus,Friend,416.0,n
xv6v1srwc7,50.0,You,True,You,Self,632.0,v
xv6v1srwc7,51.0,Elvis,True,Elvis,Stranger,430.0,b
xv6v1srwc7,52.0,Jesus,True,Jesus,Friend,664.0,n
xv6v1srwc7,53.0,Jesus,True,Jesus,Friend,329.0,n
xv6v1srwc7,54.0,Jesus,True,Jesus,Friend,347.0,n
xv6v1srwc7,55.0,Elvis,False,Jesus,Friend,1196.0,b
xv6v1srwc7,56.0,Jesus,True,Jesus,Friend,576.0,n
xv6v1srwc7,57.0,You,True,You,Self,442.0,v
xv6v1srwc7,58.0,Elvis,False,You,Self,505.0,b
xv6v1srwc7,59.0,You,True,You,Self,913.0,v
xv6v1srwc7,60.0,Elvis,True,Elvis,Stranger,1336.0,b
xv6v1srwc7,61.0,Elvis,True,Elvis,Stranger,314.0,b
xv6v1srwc7,62.0,Jesus,False,You,Self,1091.0,n
xv6v1srwc7,63.0,Jesus,True,Jesus,Friend,688.0,n
xv6v1srwc7,64.0,Elvis,True,Elvis,Stranger,413.0,b
xv6v1srwc7,65.0,Jesus,True,Jesus,Friend,1184.0,n
xv6v1srwc7,66.0,Jesus,True,Jesus,Friend,412.0,n
xv6v1srwc7,67.0,Elvis,False,You,Self,456.0,b
xv6v1srwc7,68.0,You,True,You,Self,312.0,v
xv6v1srwc7,69.0,You,True,You,Self,372.0,v
xv6v1srwc7,70.0,Jesus,True,Jesus,Friend,1086.0,n
xv6v1srwc7,71.0,Elvis,False,You,Self,1328.0,b
xv6v1srwc7,72.0,Elvis,True,Elvis,Stranger,466.0,b
xv6v1srwc7,73.0,Jesus,True,Jesus,Friend,496.0,n
xv6v1srwc7,74.0,You,True,You,Self,681.0,v
xv6v1srwc7,75.0,You,True,You,Self,1028.0,v
xv6v1srwc7,76.0,You,True,You,Self,397.0,v
xv6v1srwc7,77.0,Elvis,True,Elvis,Stranger,1151.0,b
xv6v1srwc7,78.0,You,True,You,Self,675.0,v
xv6v1srwc7,79.0,Jesus,True,Jesus,Friend,1365.0,n
xv6v1srwc7,80.0,Jesus,True,Jesus,Friend,678.0,n
xv6v1srwc7,81.0,Jesus,True,Jesus,Friend,492.0,n
xv6v1srwc7,82.0,Elvis,True,Elvis,Stranger,782.0,b
xv6v1srwc7,83.0,Elvis,True,Elvis,Stranger,529.0,b
xv6v1srwc7,84.0,Elvis,False,You,Self,1159.0,b
xv6v1srwc7,85.0,Jesus,True,Jesus,Friend,1722.0,n
xv6v1srwc7,86.0,Elvis,True,Elvis,Stranger,1150.0,b
xv6v1srwc7,87.0,You,True,You,Self,1598.0,v
xv6v1srwc7,88.0,Elvis,True,Elvis,Stranger,1130.0,b
xv6v1srwc7,89.0,Elvis,True,Elvis,Stranger,600.0,b
xv6v1srwc7,90.0,You,True,You,Self,610.0,v
xv6v1srwc7,91.0,You,True,You,Self,1213.0,v
xv6v1srwc7,92.0,You,True,You,Self,511.0,v
xv6v1srwc7,93.0,Elvis,True,Elvis,Stranger,1124.0,b
xv6v1srwc7,94.0,Elvis,True,Elvis,Stranger,350.0,b
xv6v1srwc7,95.0,You,True,You,Self,1509.0,v
xv6v1srwc7,96.0,You,True,You,Self,417.0,v
xv6v1srwc7,97.0,Elvis,True,Elvis,Stranger,921.0,b
xv6v1srwc7,98.0,Elvis,False,You,Self,411.0,b
xv6v1srwc7,99.0,Elvis,False,Jesus,Friend,516.0,b
xv6v1srwc7,100.0,You,True,You,Self,655.0,v
xv6v1srwc7,101.0,You,True,You,Self,364.0,v
xv6v1srwc7,102.0,Jesus,True,Jesus,Friend,2427.0,n
xv6v1srwc7,103.0,Elvis,True,Elvis,Stranger,375.0,b
xv6v1srwc7,104.0,You,True,You,Self,512.0,v
xv6v1srwc7,105.0,Elvis,True,Elvis,Stranger,770.0,b
xv6v1srwc7,106.0,Elvis,True,Elvis,Stranger,300.0,b
xv6v1srwc7,107.0,You,True,You,Self,1461.0,v
xv6v1srwc7,108.0,You,True,You,Self,299.0,v
duvm8v774f,1.0,,False,You,Self,,
duvm8v774f,2.0,Madonna,True,Madonna,Stranger,3728.0,b
duvm8v774f,3.0,Robert,True,Robert,Friend,3807.0,n
duvm8v774f,4.0,You,True,You,Self,2416.0,v
duvm8v774f,5.0,Robert,True,Robert,Friend,2565.0,n
duvm8v774f,6.0,Robert,True,Robert,Friend,3755.0,n
duvm8v774f,7.0,Robert,True,Robert,Friend,2880.0,n
duvm8v774f,8.0,You,True,You,Self,2053.0,v
duvm8v774f,9.0,You,True,You,Self,2219.0,v
duvm8v774f,10.0,Robert,True,Robert,Friend,2408.0,n
duvm8v774f,11.0,Robert,True,Robert,Friend,1413.0,n
duvm8v774f,12.0,Robert,True,Robert,Friend,1457.0,n
duvm8v774f,13.0,Madonna,True,Madonna,Stranger,2523.0,b
duvm8v774f,14.0,Madonna,True,Madonna,Stranger,2535.0,b
duvm8v774f,15.0,Robert,True,Robert,Friend,1692.0,n
duvm8v774f,16.0,Robert,True,Robert,Friend,926.0,n
duvm8v774f,17.0,Robert,True,Robert,Friend,1085.0,n
duvm8v774f,18.0,Robert,True,Robert,Friend,933.0,n
duvm8v774f,19.0,Madonna,True,Madonna,Stranger,941.0,b
duvm8v774f,20.0,Madonna,True,Madonna,Stranger,773.0,b
1gekw29k7e,1.0,Beyonce,True,Beyonce,Stranger,1985.0,b
1gekw29k7e,2.0,Nuno,True,Nuno,Friend,2310.0,n
1gekw29k7e,3.0,Nuno,True,Nuno,Friend,1628.0,n
1gekw29k7e,4.0,Nuno,True,Nuno,Friend,698.0,n
1gekw29k7e,5.0,Beyonce,True,Beyonce,Stranger,809.0,b
1gekw29k7e,6.0,You,True,You,Self,685.0,v
1gekw29k7e,7.0,You,True,You,Self,671.0,v
1gekw29k7e,8.0,Nuno,True,Nuno,Friend,740.0,n
1gekw29k7e,9.0,Nuno,True,Nuno,Friend,606.0,n
1gekw29k7e,10.0,You,True,You,Self,847.0,v
1gekw29k7e,11.0,You,True,You,Self,583.0,v
1gekw29k7e,12.0,Beyonce,True,Beyonce,Stranger,622.0,b
1gekw29k7e,13.0,You,True,You,Self,610.0,v
1gekw29k7e,14.0,Beyonce,True,Beyonce,Stranger,628.0,b
1gekw29k7e,15.0,Nuno,True,Nuno,Friend,580.0,n
1gekw29k7e,16.0,You,True,You,Self,620.0,v
1gekw29k7e,17.0,You,True,You,Self,524.0,v
1gekw29k7e,18.0,You,True,You,Self,524.0,v
1gekw29k7e,19.0,You,True,You,Self,431.0,v
umjwc3ll4v,1.0,,False,Anita,Friend,,
umjwc3ll4v,2.0,,False,Anita,Friend,,
umjwc3ll4v,3.0,,False,You,Self,,
umjwc3ll4v,4.0,,False,Beyonce,Stranger,,
umjwc3ll4v,5.0,,False,Beyonce,Stranger,,
umjwc3ll4v,6.0,,False,Beyonce,Stranger,,
umjwc3ll4v,7.0,Beyonce,True,Beyonce,Stranger,574.0,b
umjwc3ll4v,8.0,Beyonce,False,You,Self,5342.0,b
umjwc3ll4v,9.0,You,False,Beyonce,Stranger,1751.0,v
umjwc3ll4v,10.0,,False,Beyonce,Stranger,,
umjwc3ll4v,11.0,Anita,True,Anita,Friend,4024.0,n
umjwc3ll4v,12.0,Beyonce,True,Beyonce,Stranger,3535.0,b
umjwc3ll4v,13.0,You,False,Anita,Friend,3550.0,v
umjwc3ll4v,14.0,Beyonce,True,Beyonce,Stranger,3756.0,b
umjwc3ll4v,15.0,You,True,You,Self,4719.0,v
umjwc3ll4v,16.0,You,True,You,Self,2646.0,v
umjwc3ll4v,17.0,Anita,True,Anita,Friend,5924.0,n
umjwc3ll4v,18.0,Beyonce,False,You,Self,3851.0,b
umjwc3ll4v,19.0,You,True,You,Self,2528.0,v
umjwc3ll4v,20.0,You,True,You,Self,1293.0,v
umjwc3ll4v,21.0,You,True,You,Self,1270.0,v
umjwc3ll4v,22.0,You,True,You,Self,993.0,v
umjwc3ll4v,23.0,,False,Anita,Friend,,
umjwc3ll4v,24.0,You,True,You,Self,2126.0,v
umjwc3ll4v,25.0,You,True,You,Self,635.0,v
umjwc3ll4v,26.0,You,True,You,Self,1687.0,v
umjwc3ll4v,27.0,You,True,You,Self,687.0,v
umjwc3ll4v,28.0,Beyonce,True,Beyonce,Stranger,2495.0,b
umjwc3ll4v,29.0,Beyonce,True,Beyonce,Stranger,569.0,b
umjwc3ll4v,30.0,Anita,True,Anita,Friend,2127.0,n
umjwc3ll4v,31.0,You,True,You,Self,3294.0,v
umjwc3ll4v,32.0,Anita,False,Beyonce,Stranger,905.0,n
umjwc3ll4v,33.0,Beyonce,True,Beyonce,Stranger,1689.0,b
umjwc3ll4v,34.0,Anita,True,Anita,Friend,1710.0,n
umjwc3ll4v,35.0,Anita,True,Anita,Friend,880.0,n
umjwc3ll4v,36.0,Anita,True,Anita,Friend,1065.0,n
umjwc3ll4v,37.0,Anita,True,Anita,Friend,1149.0,n
umjwc3ll4v,38.0,Anita,True,Anita,Friend,1133.0,n
umjwc3ll4v,39.0,Beyonce,True,Beyonce,Stranger,1666.0,b
umjwc3ll4v,40.0,Beyonce,True,Beyonce,Stranger,608.0,b
umjwc3ll4v,41.0,Beyonce,True,Beyonce,Stranger,489.0,b
umjwc3ll4v,42.0,Anita,True,Anita,Friend,828.0,n
umjwc3ll4v,43.0,You,True,You,Self,1287.0,v
umjwc3ll4v,44.0,You,True,You,Self,602.0,v
umjwc3ll4v,45.0,You,True,You,Self,719.0,v
umjwc3ll4v,46.0,Beyonce,True,Beyonce,Stranger,866.0,b
umjwc3ll4v,47.0,Beyonce,True,Beyonce,Stranger,1917.0,b
umjwc3ll4v,48.0,Beyonce,True,Beyonce,Stranger,544.0,b
umjwc3ll4v,49.0,You,True,You,Self,932.0,v
umjwc3ll4v,50.0,You,True,You,Self,624.0,v
umjwc3ll4v,51.0,You,True,You,Self,332.0,v
lb27vnxcsa,1.0,,False,You,Self,,
lb27vnxcsa,2.0,,False,Flo,Friend,,
lb27vnxcsa,3.0,,False,Elvis,Stranger,,
lb27vnxcsa,4.0,,False,Elvis,Stranger,,
lb27vnxcsa,5.0,Elvis,False,Flo,Friend,1102.0,b
lb27vnxcsa,6.0,Flo,True,Flo,Friend,941.0,n
lb27vnxcsa,7.0,Elvis,True,Elvis,Stranger,5563.0,b
lb27vnxcsa,8.0,Flo,True,Flo,Friend,3309.0,n
lb27vnxcsa,9.0,Flo,False,Elvis,Stranger,3995.0,n
lb27vnxcsa,10.0,Elvis,True,Elvis,Stranger,2262.0,b
lb27vnxcsa,11.0,Flo,True,Flo,Friend,2363.0,n
lb27vnxcsa,12.0,You,True,You,Self,1417.0,v
lb27vnxcsa,13.0,Elvis,True,Elvis,Stranger,2153.0,b
lb27vnxcsa,14.0,You,True,You,Self,1357.0,v
lb27vnxcsa,15.0,Elvis,True,Elvis,Stranger,1628.0,b
lb27vnxcsa,16.0,Elvis,True,Elvis,Stranger,1410.0,b
lb27vnxcsa,17.0,Flo,True,Flo,Friend,1519.0,n
lb27vnxcsa,18.0,You,True,You,Self,1127.0,v
lb27vnxcsa,19.0,Flo,True,Flo,Friend,1458.0,n
lb27vnxcsa,20.0,Elvis,True,Elvis,Stranger,1481.0,b
lb27vnxcsa,21.0,Flo,True,Flo,Friend,1419.0,n
lb27vnxcsa,22.0,Flo,True,Flo,Friend,712.0,n
lb27vnxcsa,23.0,Elvis,True,Elvis,Stranger,1254.0,b
lb27vnxcsa,24.0,Elvis,True,Elvis,Stranger,941.0,b
lb27vnxcsa,25.0,You,True,You,Self,1051.0,v
lb27vnxcsa,26.0,Elvis,True,Elvis,Stranger,1017.0,b
lb27vnxcsa,27.0,Flo,True,Flo,Friend,1072.0,n
lb27vnxcsa,28.0,You,True,You,Self,1064.0,v
wb2m3xzg0y,1.0,Pink,True,Pink,Stranger,1849.0,b
wb2m3xzg0y,2.0,You,True,You,Self,2433.0,v
wb2m3xzg0y,3.0,Sofie,True,Sofie,Friend,1346.0,n
wb2m3xzg0y,4.0,Pink,True,Pink,Stranger,913.0,b
wb2m3xzg0y,5.0,You,True,You,Self,881.0,v
wb2m3xzg0y,6.0,Pink,True,Pink,Stranger,675.0,b
wb2m3xzg0y,7.0,Pink,True,Pink,Stranger,727.0,b
wb2m3xzg0y,8.0,Sofie,True,Sofie,Friend,1100.0,n
wb2m3xzg0y,9.0,Pink,True,Pink,Stranger,1176.0,b
wb2m3xzg0y,10.0,Pink,True,Pink,Stranger,1270.0,b
wb2m3xzg0y,11.0,You,True,You,Self,1135.0,v
wb2m3xzg0y,12.0,Sofie,True,Sofie,Friend,668.0,n
wb2m3xzg0y,13.0,You,True,You,Self,1057.0,v
wb2m3xzg0y,14.0,You,True,You,Self,1431.0,v
wb2m3xzg0y,15.0,Sofie,True,Sofie,Friend,615.0,n
wb2m3xzg0y,16.0,Pink,True,Pink,Stranger,718.0,b
wb2m3xzg0y,17.0,Sofie,True,Sofie,Friend,960.0,n
wb2m3xzg0y,18.0,Sofie,True,Sofie,Friend,531.0,n
wb2m3xzg0y,19.0,You,True,You,Self,603.0,v
dncnzuyfem,1.0,You,True,You,Self,2239.0,v
dncnzuyfem,2.0,You,True,You,Self,1353.0,v
dncnzuyfem,3.0,Kratos,True,Kratos,Friend,875.0,n
dncnzuyfem,4.0,You,True,You,Self,627.0,v
dncnzuyfem,5.0,Kratos,True,Kratos,Friend,647.0,n
dncnzuyfem,6.0,You,True,You,Self,579.0,v
dncnzuyfem,7.0,Kratos,True,Kratos,Friend,605.0,n
dncnzuyfem,8.0,You,True,You,Self,554.0,v
dncnzuyfem,9.0,You,True,You,Self,468.0,v
dncnzuyfem,10.0,You,True,You,Self,400.0,v
dncnzuyfem,11.0,Sting,True,Sting,Stranger,420.0,b
dncnzuyfem,12.0,Sting,False,You,Self,398.0,b
dncnzuyfem,13.0,Sting,True,Sting,Stranger,524.0,b
dncnzuyfem,14.0,Sting,True,Sting,Stranger,442.0,b
dncnzuyfem,15.0,Sting,True,Sting,Stranger,448.0,b
dncnzuyfem,16.0,You,True,You,Self,453.0,v
dncnzuyfem,17.0,Sting,True,Sting,Stranger,434.0,b
dncnzuyfem,18.0,Kratos,True,Kratos,Friend,533.0,n
dncnzuyfem,19.0,Sting,True,Sting,Stranger,522.0,b
dncnzuyfem,20.0,Kratos,True,Kratos,Friend,690.0,n
dncnzuyfem,21.0,Sting,True,Sting,Stranger,439.0,b
dncnzuyfem,22.0,You,True,You,Self,500.0,v
dncnzuyfem,23.0,Sting,True,Sting,Stranger,442.0,b
dncnzuyfem,24.0,You,True,You,Self,725.0,v
dncnzuyfem,25.0,You,True,You,Self,574.0,v
dncnzuyfem,26.0,You,True,You,Self,507.0,v
dncnzuyfem,27.0,Kratos,True,Kratos,Friend,378.0,n
dncnzuyfem,28.0,Kratos,True,Kratos,Friend,528.0,n
dncnzuyfem,29.0,Sting,True,Sting,Stranger,500.0,b
dncnzuyfem,30.0,Sting,True,Sting,Stranger,491.0,b
dncnzuyfem,31.0,Kratos,True,Kratos,Friend,530.0,n
fo67ktc6da,1.0,You,True,You,Self,3903.0,v
fo67ktc6da,2.0,Inês,True,Inês,Friend,1468.0,n
fo67ktc6da,3.0,Beyonce,True,Beyonce,Stranger,482.0,b
fo67ktc6da,4.0,You,True,You,Self,845.0,v
fo67ktc6da,5.0,You,True,You,Self,771.0,v
fo67ktc6da,6.0,Beyonce,True,Beyonce,Stranger,919.0,b
fo67ktc6da,7.0,Beyonce,True,Beyonce,Stranger,506.0,b
fo67ktc6da,8.0,You,True,You,Self,495.0,v
fo67ktc6da,9.0,Beyonce,True,Beyonce,Stranger,527.0,b
fo67ktc6da,10.0,Beyonce,True,Beyonce,Stranger,558.0,b
fo67ktc6da,11.0,Beyonce,True,Beyonce,Stranger,442.0,b
fo67ktc6da,12.0,Beyonce,True,Beyonce,Stranger,292.0,b
fo67ktc6da,13.0,You,True,You,Self,500.0,v
fo67ktc6da,14.0,Inês,True,Inês,Friend,287.0,n
fo67ktc6da,15.0,Inês,True,Inês,Friend,371.0,n
fo67ktc6da,16.0,You,True,You,Self,457.0,v
fo67ktc6da,17.0,Inês,True,Inês,Friend,493.0,n
fo67ktc6da,18.0,Beyonce,True,Beyonce,Stranger,812.0,b
fo67ktc6da,19.0,You,True,You,Self,471.0,v
s8xxstxp2u,1.0,,False,You,Self,,
s8xxstxp2u,2.0,Maurice,True,Maurice,Friend,2665.0,n
s8xxstxp2u,3.0,Eminem,True,Eminem,Stranger,1111.0,b
s8xxstxp2u,4.0,You,True,You,Self,885.0,v
s8xxstxp2u,5.0,You,True,You,Self,991.0,v
s8xxstxp2u,6.0,Eminem,True,Eminem,Stranger,1177.0,b
s8xxstxp2u,7.0,Maurice,True,Maurice,Friend,832.0,n
s8xxstxp2u,8.0,You,True,You,Self,648.0,v
s8xxstxp2u,9.0,You,True,You,Self,1385.0,v
s8xxstxp2u,10.0,Eminem,True,Eminem,Stranger,584.0,b
s8xxstxp2u,11.0,You,True,You,Self,733.0,v
s8xxstxp2u,12.0,Eminem,True,Eminem,Stranger,749.0,b
s8xxstxp2u,13.0,You,True,You,Self,710.0,v
s8xxstxp2u,14.0,You,True,You,Self,668.0,v
s8xxstxp2u,15.0,You,True,You,Self,612.0,v
s8xxstxp2u,16.0,Maurice,True,Maurice,Friend,702.0,n
s8xxstxp2u,17.0,Eminem,False,Maurice,Friend,708.0,b
s8xxstxp2u,18.0,Maurice,True,Maurice,Friend,1205.0,n
s8xxstxp2u,19.0,Maurice,True,Maurice,Friend,708.0,n
s8xxstxp2u,20.0,Maurice,True,Maurice,Friend,580.0,n
s8xxstxp2u,21.0,Maurice,True,Maurice,Friend,766.0,n
s8xxstxp2u,22.0,Maurice,True,Maurice,Friend,612.0,n
s8xxstxp2u,23.0,Maurice,True,Maurice,Friend,579.0,n
s8xxstxp2u,24.0,Maurice,True,Maurice,Friend,522.0,n
s8xxstxp2u,25.0,You,True,You,Self,847.0,v
s8xxstxp2u,26.0,Eminem,True,Eminem,Stranger,638.0,b
s8xxstxp2u,27.0,You,True,You,Self,585.0,v
s8xxstxp2u,28.0,Maurice,True,Maurice,Friend,640.0,n
s8xxstxp2u,29.0,You,False,Maurice,Friend,963.0,v
s8xxstxp2u,30.0,You,True,You,Self,808.0,v
s8xxstxp2u,31.0,Eminem,True,Eminem,Stranger,739.0,b
s8xxstxp2u,32.0,Maurice,True,Maurice,Friend,936.0,n
s8xxstxp2u,33.0,Eminem,True,Eminem,Stranger,679.0,b
s8xxstxp2u,34.0,Eminem,True,Eminem,Stranger,616.0,b
s8xxstxp2u,35.0,Maurice,True,Maurice,Friend,692.0,n
s8xxstxp2u,36.0,Maurice,True,Maurice,Friend,836.0,n
s8xxstxp2u,37.0,Eminem,True,Eminem,Stranger,607.0,b
s8xxstxp2u,38.0,Maurice,True,Maurice,Friend,740.0,n
s8xxstxp2u,39.0,Eminem,True,Eminem,Stranger,733.0,b
s8xxstxp2u,40.0,Eminem,True,Eminem,Stranger,1203.0,b
s8xxstxp2u,41.0,Eminem,True,Eminem,Stranger,771.0,b
s8xxstxp2u,42.0,You,True,You,Self,441.0,v
s8xxstxp2u,43.0,You,True,You,Self,675.0,v
s8xxstxp2u,44.0,Maurice,True,Maurice,Friend,583.0,n
s8xxstxp2u,45.0,You,True,You,Self,652.0,v
s8xxstxp2u,46.0,You,True,You,Self,459.0,v
s8xxstxp2u,47.0,Eminem,True,Eminem,Stranger,560.0,b
s8xxstxp2u,48.0,Eminem,True,Eminem,Stranger,496.0,b
z6t96r35d9,1.0,Eminem,False,You,Self,6410.0,b
z6t96r35d9,2.0,,False,Eminem,Stranger,,
z6t96r35d9,3.0,You,True,You,Self,1244.0,v
z6t96r35d9,4.0,Gilbert,True,Gilbert,Friend,2134.0,n
z6t96r35d9,5.0,Eminem,True,Eminem,Stranger,851.0,b
z6t96r35d9,6.0,Eminem,True,Eminem,Stranger,612.0,b
z6t96r35d9,7.0,Gilbert,True,Gilbert,Friend,841.0,n
z6t96r35d9,8.0,Eminem,True,Eminem,Stranger,650.0,b
z6t96r35d9,9.0,Gilbert,True,Gilbert,Friend,733.0,n
z6t96r35d9,10.0,Eminem,True,Eminem,Stranger,618.0,b
z6t96r35d9,11.0,Eminem,True,Eminem,Stranger,1843.0,b
z6t96r35d9,12.0,You,True,You,Self,525.0,v
z6t96r35d9,13.0,Gilbert,True,Gilbert,Friend,1134.0,n
z6t96r35d9,14.0,Eminem,True,Eminem,Stranger,686.0,b
z6t96r35d9,15.0,You,True,You,Self,645.0,v
z6t96r35d9,16.0,Eminem,False,Gilbert,Friend,673.0,b
z6t96r35d9,17.0,Eminem,True,Eminem,Stranger,828.0,b
z6t96r35d9,18.0,You,True,You,Self,659.0,v
z6t96r35d9,19.0,Eminem,True,Eminem,Stranger,819.0,b
z6t96r35d9,20.0,You,True,You,Self,546.0,v
z6t96r35d9,21.0,You,True,You,Self,565.0,v
z6t96r35d9,22.0,You,True,You,Self,385.0,v
z6t96r35d9,23.0,Eminem,True,Eminem,Stranger,700.0,b
z6t96r35d9,24.0,You,True,You,Self,582.0,v
z6t96r35d9,25.0,Eminem,True,Eminem,Stranger,632.0,b
z6t96r35d9,26.0,Gilbert,True,Gilbert,Friend,691.0,n
z6t96r35d9,27.0,You,True,You,Self,604.0,v
z6t96r35d9,28.0,Eminem,True,Eminem,Stranger,597.0,b
z6t96r35d9,29.0,Gilbert,True,Gilbert,Friend,1153.0,n
z6t96r35d9,30.0,Gilbert,True,Gilbert,Friend,1928.0,n
z6t96r35d9,31.0,Eminem,True,Eminem,Stranger,1065.0,b
z6t96r35d9,32.0,Eminem,True,Eminem,Stranger,4152.0,b
z6t96r35d9,33.0,Gilbert,True,Gilbert,Friend,937.0,n
z6t96r35d9,34.0,Eminem,True,Eminem,Stranger,891.0,b
z6t96r35d9,35.0,Eminem,True,Eminem,Stranger,1716.0,b
p55nzqz0lh,1.0,Gema,True,Gema,Friend,1887.0,n
p55nzqz0lh,2.0,Seal,True,Seal,Stranger,849.0,b
p55nzqz0lh,3.0,Gema,True,Gema,Friend,715.0,n
p55nzqz0lh,4.0,Gema,True,Gema,Friend,462.0,n
p55nzqz0lh,5.0,Gema,True,Gema,Friend,398.0,n
p55nzqz0lh,6.0,Gema,True,Gema,Friend,383.0,n
p55nzqz0lh,7.0,You,True,You,Self,568.0,v
p55nzqz0lh,8.0,Gema,True,Gema,Friend,754.0,n
p55nzqz0lh,9.0,Seal,True,Seal,Stranger,566.0,b
p55nzqz0lh,10.0,Gema,False,Seal,Stranger,768.0,n
p55nzqz0lh,11.0,Seal,True,Seal,Stranger,575.0,b
p55nzqz0lh,12.0,You,True,You,Self,594.0,v
p55nzqz0lh,13.0,You,True,You,Self,514.0,v
p55nzqz0lh,14.0,Gema,False,Seal,Stranger,519.0,n
p55nzqz0lh,15.0,You,True,You,Self,624.0,v
p55nzqz0lh,16.0,Seal,True,Seal,Stranger,571.0,b
p55nzqz0lh,17.0,Seal,True,Seal,Stranger,531.0,b
p55nzqz0lh,18.0,Gema,True,Gema,Friend,789.0,n
p55nzqz0lh,19.0,You,False,Seal,Stranger,741.0,v
p55nzqz0lh,20.0,Gema,True,Gema,Friend,637.0,n
p55nzqz0lh,21.0,Gema,True,Gema,Friend,699.0,n
p55nzqz0lh,22.0,You,False,Seal,Stranger,849.0,v
p55nzqz0lh,23.0,Gema,True,Gema,Friend,559.0,n
p55nzqz0lh,24.0,Gema,False,Seal,Stranger,506.0,n
p55nzqz0lh,25.0,Seal,True,Seal,Stranger,571.0,b
p55nzqz0lh,26.0,Gema,True,Gema,Friend,710.0,n
p55nzqz0lh,27.0,Gema,True,Gema,Friend,339.0,n
p55nzqz0lh,28.0,You,True,You,Self,540.0,v
p55nzqz0lh,29.0,Gema,True,Gema,Friend,617.0,n
p55nzqz0lh,30.0,Seal,True,Seal,Stranger,641.0,b
p55nzqz0lh,31.0,Gema,True,Gema,Friend,478.0,n
p55nzqz0lh,32.0,You,True,You,Self,575.0,v
p55nzqz0lh,33.0,Seal,True,Seal,Stranger,422.0,b
p55nzqz0lh,34.0,You,True,You,Self,592.0,v
p55nzqz0lh,35.0,Gema,True,Gema,Friend,551.0,n
p55nzqz0lh,36.0,Seal,True,Seal,Stranger,681.0,b
p55nzqz0lh,37.0,Gema,True,Gema,Friend,598.0,n
p55nzqz0lh,38.0,Seal,True,Seal,Stranger,442.0,b
p55nzqz0lh,39.0,Seal,True,Seal,Stranger,340.0,b
p55nzqz0lh,40.0,Gema,False,You,Self,426.0,n
p55nzqz0lh,41.0,Seal,True,Seal,Stranger,884.0,b
p55nzqz0lh,42.0,You,True,You,Self,542.0,v
p55nzqz0lh,43.0,Gema,True,Gema,Friend,473.0,n
p55nzqz0lh,44.0,Seal,False,You,Self,424.0,b
p55nzqz0lh,45.0,Seal,True,Seal,Stranger,457.0,b
p55nzqz0lh,46.0,You,True,You,Self,399.0,v
p55nzqz0lh,47.0,You,True,You,Self,355.0,v
p55nzqz0lh,48.0,Gema,True,Gema,Friend,505.0,n
p55nzqz0lh,49.0,Gema,True,Gema,Friend,733.0,n
p55nzqz0lh,50.0,You,True,You,Self,451.0,v
p55nzqz0lh,51.0,You,True,You,Self,380.0,v
p55nzqz0lh,52.0,Gema,True,Gema,Friend,561.0,n
p55nzqz0lh,53.0,Gema,True,Gema,Friend,414.0,n
p55nzqz0lh,54.0,Gema,True,Gema,Friend,413.0,n
p55nzqz0lh,55.0,You,True,You,Self,429.0,v
p55nzqz0lh,56.0,You,True,You,Self,610.0,v
p55nzqz0lh,57.0,You,True,You,Self,323.0,v
p55nzqz0lh,58.0,Seal,True,Seal,Stranger,483.0,b
p55nzqz0lh,59.0,Seal,True,Seal,Stranger,312.0,b
p55nzqz0lh,60.0,Gema,True,Gema,Friend,538.0,n
p55nzqz0lh,61.0,Seal,True,Seal,Stranger,452.0,b
p55nzqz0lh,62.0,You,True,You,Self,472.0,v
p55nzqz0lh,63.0,Gema,False,Seal,Stranger,572.0,n
p55nzqz0lh,64.0,You,True,You,Self,596.0,v
p55nzqz0lh,65.0,Gema,True,Gema,Friend,553.0,n
p55nzqz0lh,66.0,You,True,You,Self,471.0,v
p55nzqz0lh,67.0,You,True,You,Self,502.0,v
p55nzqz0lh,68.0,Seal,True,Seal,Stranger,847.0,b
p55nzqz0lh,69.0,Gema,True,Gema,Friend,549.0,n
p55nzqz0lh,70.0,You,True,You,Self,730.0,v
p55nzqz0lh,71.0,You,True,You,Self,575.0,v
p55nzqz0lh,72.0,Seal,True,Seal,Stranger,565.0,b
p55nzqz0lh,73.0,You,True,You,Self,1218.0,v
p55nzqz0lh,74.0,Seal,True,Seal,Stranger,720.0,b
p55nzqz0lh,75.0,Gema,True,Gema,Friend,546.0,n
p55nzqz0lh,76.0,Seal,True,Seal,Stranger,952.0,b
p55nzqz0lh,77.0,You,False,Gema,Friend,963.0,v
p55nzqz0lh,78.0,Seal,True,Seal,Stranger,601.0,b
p55nzqz0lh,79.0,Gema,True,Gema,Friend,611.0,n
p55nzqz0lh,80.0,Seal,True,Seal,Stranger,665.0,b
p55nzqz0lh,81.0,You,True,You,Self,833.0,v
p55nzqz0lh,82.0,Gema,True,Gema,Friend,583.0,n
p55nzqz0lh,83.0,Seal,True,Seal,Stranger,636.0,b
p55nzqz0lh,84.0,Gema,True,Gema,Friend,802.0,n
p55nzqz0lh,85.0,Gema,True,Gema,Friend,349.0,n
p55nzqz0lh,86.0,Seal,True,Seal,Stranger,401.0,b
p55nzqz0lh,87.0,You,True,You,Self,304.0,v
p55nzqz0lh,88.0,Seal,True,Seal,Stranger,422.0,b
p55nzqz0lh,89.0,You,True,You,Self,480.0,v
p55nzqz0lh,90.0,Seal,False,Gema,Friend,380.0,b
p55nzqz0lh,91.0,You,True,You,Self,480.0,v
p55nzqz0lh,92.0,Gema,False,Seal,Stranger,613.0,n
p55nzqz0lh,93.0,Gema,True,Gema,Friend,569.0,n
p55nzqz0lh,94.0,You,True,You,Self,740.0,v
p55nzqz0lh,95.0,Seal,True,Seal,Stranger,786.0,b
p55nzqz0lh,96.0,Seal,True,Seal,Stranger,414.0,b
p55nzqz0lh,97.0,You,True,You,Self,539.0,v
p55nzqz0lh,98.0,Gema,True,Gema,Friend,620.0,n
p55nzqz0lh,99.0,You,True,You,Self,662.0,v
p55nzqz0lh,100.0,You,True,You,Self,477.0,v
p55nzqz0lh,101.0,Gema,True,Gema,Friend,548.0,n
p55nzqz0lh,102.0,Seal,True,Seal,Stranger,731.0,b
p55nzqz0lh,103.0,You,True,You,Self,607.0,v
p55nzqz0lh,104.0,You,True,You,Self,362.0,v
p55nzqz0lh,105.0,Gema,True,Gema,Friend,453.0,n
p55nzqz0lh,106.0,Seal,True,Seal,Stranger,482.0,b
p55nzqz0lh,107.0,You,True,You,Self,505.0,v
p55nzqz0lh,108.0,You,True,You,Self,341.0,v
7mfx371l3b,1.0,,False,Seal,Stranger,,
7mfx371l3b,2.0,Ben,True,Ben,Friend,1569.0,n
7mfx371l3b,3.0,Seal,True,Seal,Stranger,1893.0,b
7mfx371l3b,4.0,Seal,True,Seal,Stranger,1414.0,b
7mfx371l3b,5.0,Seal,True,Seal,Stranger,968.0,b
7mfx371l3b,6.0,Ben,True,Ben,Friend,975.0,n
7mfx371l3b,7.0,Ben,True,Ben,Friend,655.0,n
7mfx371l3b,8.0,Ben,True,Ben,Friend,676.0,n
7mfx371l3b,9.0,Ben,True,Ben,Friend,1078.0,n
7mfx371l3b,10.0,Seal,True,Seal,Stranger,1478.0,b
7mfx371l3b,11.0,Ben,True,Ben,Friend,994.0,n
7mfx371l3b,12.0,You,True,You,Self,935.0,v
7mfx371l3b,13.0,You,True,You,Self,675.0,v
7mfx371l3b,14.0,Ben,True,Ben,Friend,792.0,n
7mfx371l3b,15.0,Seal,True,Seal,Stranger,1058.0,b
7mfx371l3b,16.0,You,True,You,Self,958.0,v
7mfx371l3b,17.0,Ben,True,Ben,Friend,920.0,n
7mfx371l3b,18.0,You,True,You,Self,780.0,v
7mfx371l3b,19.0,Seal,True,Seal,Stranger,621.0,b
7mfx371l3b,20.0,Seal,True,Seal,Stranger,826.0,b
z6z3xvnogz,1.0,,False,Princess,Friend,,
z6z3xvnogz,2.0,Madonna,False,You,Self,2671.0,b
z6z3xvnogz,3.0,,False,You,Self,,
z6z3xvnogz,4.0,You,True,You,Self,2842.0,v
z6z3xvnogz,5.0,You,True,You,Self,2507.0,v
z6z3xvnogz,6.0,You,True,You,Self,1543.0,v
z6z3xvnogz,7.0,You,True,You,Self,2033.0,v
z6z3xvnogz,8.0,Princess,False,Madonna,Stranger,2797.0,n
z6z3xvnogz,9.0,Madonna,True,Madonna,Stranger,1399.0,b
z6z3xvnogz,10.0,You,True,You,Self,1673.0,v
z6z3xvnogz,11.0,Madonna,True,Madonna,Stranger,1380.0,b
z6z3xvnogz,12.0,You,True,You,Self,1266.0,v
z6z3xvnogz,13.0,Princess,True,Princess,Friend,3753.0,n
z6z3xvnogz,14.0,Madonna,True,Madonna,Stranger,1580.0,b
z6z3xvnogz,15.0,Princess,True,Princess,Friend,1652.0,n
z6z3xvnogz,16.0,Madonna,True,Madonna,Stranger,1405.0,b
z6z3xvnogz,17.0,Princess,True,Princess,Friend,1352.0,n
z6z3xvnogz,18.0,Princess,False,Madonna,Stranger,1761.0,n
z6z3xvnogz,19.0,Madonna,True,Madonna,Stranger,1133.0,b
z6z3xvnogz,20.0,Princess,True,Princess,Friend,914.0,n
z6z3xvnogz,21.0,Princess,True,Princess,Friend,959.0,n
z6z3xvnogz,22.0,Princess,True,Princess,Friend,799.0,n
z6z3xvnogz,23.0,Princess,True,Princess,Friend,846.0,n
z6z3xvnogz,24.0,You,True,You,Self,1398.0,v
z6z3xvnogz,25.0,Princess,True,Princess,Friend,1292.0,n
z6z3xvnogz,26.0,You,True,You,Self,986.0,v
z6z3xvnogz,27.0,You,True,You,Self,1062.0,v
z6z3xvnogz,28.0,Madonna,True,Madonna,Stranger,1041.0,b
z6z3xvnogz,29.0,Princess,True,Princess,Friend,1336.0,n
z6z3xvnogz,30.0,Princess,True,Princess,Friend,1681.0,n
z6z3xvnogz,31.0,Madonna,True,Madonna,Stranger,1357.0,b
z6z3xvnogz,32.0,You,True,You,Self,944.0,v
z6z3xvnogz,33.0,Madonna,True,Madonna,Stranger,1163.0,b
z6z3xvnogz,34.0,You,True,You,Self,933.0,v
z6z3xvnogz,35.0,Madonna,True,Madonna,Stranger,878.0,b
z6z3xvnogz,36.0,Madonna,True,Madonna,Stranger,739.0,b
z6z3xvnogz,37.0,You,True,You,Self,763.0,v
90dvcgymx4,1.0,,False,Sting,Stranger,,
90dvcgymx4,2.0,Giorgos,True,Giorgos,Friend,3397.0,n
90dvcgymx4,3.0,You,True,You,Self,1451.0,v
90dvcgymx4,4.0,Sting,False,Giorgos,Friend,1143.0,b
90dvcgymx4,5.0,Sting,True,Sting,Stranger,1852.0,b
90dvcgymx4,6.0,Sting,True,Sting,Stranger,1298.0,b
90dvcgymx4,7.0,Sting,True,Sting,Stranger,1155.0,b
90dvcgymx4,8.0,Sting,True,Sting,Stranger,707.0,b
90dvcgymx4,9.0,Sting,True,Sting,Stranger,748.0,b
90dvcgymx4,10.0,You,True,You,Self,1251.0,v
90dvcgymx4,11.0,Giorgos,True,Giorgos,Friend,525.0,n
90dvcgymx4,12.0,Giorgos,True,Giorgos,Friend,965.0,n
90dvcgymx4,13.0,Giorgos,True,Giorgos,Friend,571.0,n
90dvcgymx4,14.0,You,True,You,Self,601.0,v
90dvcgymx4,15.0,Sting,True,Sting,Stranger,710.0,b
90dvcgymx4,16.0,You,True,You,Self,611.0,v
90dvcgymx4,17.0,Giorgos,True,Giorgos,Friend,694.0,n
90dvcgymx4,18.0,You,True,You,Self,617.0,v
90dvcgymx4,19.0,Giorgos,True,Giorgos,Friend,579.0,n
90dvcgymx4,20.0,Giorgos,True,Giorgos,Friend,529.0,n
90dvcgymx4,21.0,Sting,True,Sting,Stranger,1069.0,b
90dvcgymx4,22.0,You,True,You,Self,658.0,v
90dvcgymx4,23.0,You,True,You,Self,1183.0,v
3psb0w4l7h,1.0,Beyonce,True,Beyonce,Stranger,5611.0,b
3psb0w4l7h,2.0,Beyonce,True,Beyonce,Stranger,2041.0,b
3psb0w4l7h,3.0,Gloria,True,Gloria,Friend,1295.0,n
3psb0w4l7h,4.0,You,True,You,Self,915.0,v
3psb0w4l7h,5.0,You,True,You,Self,938.0,v
3psb0w4l7h,6.0,Gloria,True,Gloria,Friend,857.0,n
3psb0w4l7h,7.0,Gloria,True,Gloria,Friend,1429.0,n
3psb0w4l7h,8.0,Gloria,True,Gloria,Friend,741.0,n
3psb0w4l7h,9.0,Beyonce,True,Beyonce,Stranger,938.0,b
3psb0w4l7h,10.0,Beyonce,True,Beyonce,Stranger,1874.0,b
3psb0w4l7h,11.0,Gloria,True,Gloria,Friend,798.0,n
3psb0w4l7h,12.0,Gloria,True,Gloria,Friend,857.0,n
3psb0w4l7h,13.0,Gloria,True,Gloria,Friend,717.0,n
3psb0w4l7h,14.0,Beyonce,True,Beyonce,Stranger,593.0,b
3psb0w4l7h,15.0,Gloria,True,Gloria,Friend,860.0,n
3psb0w4l7h,16.0,You,True,You,Self,555.0,v
3psb0w4l7h,17.0,Gloria,True,Gloria,Friend,696.0,n
3psb0w4l7h,18.0,Beyonce,True,Beyonce,Stranger,618.0,b
3psb0w4l7h,19.0,Beyonce,True,Beyonce,Stranger,1220.0,b
oybcel2f4k,1.0,Pink,True,Pink,Stranger,3690.0,b
oybcel2f4k,2.0,Wendy,True,Wendy,Friend,1870.0,n
oybcel2f4k,3.0,You,True,You,Self,1701.0,v
oybcel2f4k,4.0,Wendy,True,Wendy,Friend,2248.0,n
oybcel2f4k,5.0,You,True,You,Self,1710.0,v
oybcel2f4k,6.0,You,True,You,Self,1500.0,v
oybcel2f4k,7.0,Pink,True,Pink,Stranger,1126.0,b
oybcel2f4k,8.0,Wendy,True,Wendy,Friend,1858.0,n
oybcel2f4k,9.0,You,True,You,Self,1947.0,v
oybcel2f4k,10.0,Wendy,True,Wendy,Friend,1464.0,n
oybcel2f4k,11.0,Wendy,True,Wendy,Friend,1039.0,n
oybcel2f4k,12.0,Pink,True,Pink,Stranger,1207.0,b
oybcel2f4k,13.0,Pink,True,Pink,Stranger,892.0,b
oybcel2f4k,14.0,You,True,You,Self,1244.0,v
oybcel2f4k,15.0,Wendy,True,Wendy,Friend,1233.0,n
oybcel2f4k,16.0,Pink,True,Pink,Stranger,1059.0,b
oybcel2f4k,17.0,Pink,True,Pink,Stranger,837.0,b
oybcel2f4k,18.0,Pink,True,Pink,Stranger,914.0,b
oybcel2f4k,19.0,You,True,You,Self,808.0,v
nt5jdgqnwb,1.0,Pink,True,Pink,Stranger,1845.0,b
nt5jdgqnwb,2.0,You,True,You,Self,1265.0,v
nt5jdgqnwb,3.0,Vee,True,Vee,Friend,1462.0,n
nt5jdgqnwb,4.0,You,True,You,Self,2005.0,v
nt5jdgqnwb,5.0,Vee,True,Vee,Friend,944.0,n
nt5jdgqnwb,6.0,Vee,True,Vee,Friend,802.0,n
nt5jdgqnwb,7.0,Pink,True,Pink,Stranger,1814.0,b
nt5jdgqnwb,8.0,Vee,True,Vee,Friend,2569.0,n
nt5jdgqnwb,9.0,Vee,True,Vee,Friend,1216.0,n
nt5jdgqnwb,10.0,You,True,You,Self,1147.0,v
nt5jdgqnwb,11.0,Pink,True,Pink,Stranger,1246.0,b
nt5jdgqnwb,12.0,You,True,You,Self,871.0,v
nt5jdgqnwb,13.0,Vee,True,Vee,Friend,741.0,n
nt5jdgqnwb,14.0,You,True,You,Self,784.0,v
nt5jdgqnwb,15.0,Vee,True,Vee,Friend,819.0,n
nt5jdgqnwb,16.0,You,True,You,Self,664.0,v
nt5jdgqnwb,17.0,Vee,True,Vee,Friend,543.0,n
nt5jdgqnwb,18.0,Pink,False,You,Self,604.0,b
nt5jdgqnwb,19.0,You,True,You,Self,827.0,v
nt5jdgqnwb,20.0,You,True,You,Self,455.0,v
nt5jdgqnwb,21.0,You,True,You,Self,514.0,v
nt5jdgqnwb,22.0,Pink,True,Pink,Stranger,643.0,b
nt5jdgqnwb,23.0,Vee,True,Vee,Friend,586.0,n
nt5jdgqnwb,24.0,You,True,You,Self,585.0,v
nt5jdgqnwb,25.0,Vee,True,Vee,Friend,623.0,n
nt5jdgqnwb,26.0,Pink,True,Pink,Stranger,749.0,b
nt5jdgqnwb,27.0,You,True,You,Self,720.0,v
nt5jdgqnwb,28.0,Vee,True,Vee,Friend,675.0,n
nt5jdgqnwb,29.0,Vee,True,Vee,Friend,596.0,n
nt5jdgqnwb,30.0,Vee,True,Vee,Friend,641.0,n
nt5jdgqnwb,31.0,Pink,True,Pink,Stranger,446.0,b
nt5jdgqnwb,32.0,Pink,True,Pink,Stranger,358.0,b
nt5jdgqnwb,33.0,You,True,You,Self,568.0,v
nt5jdgqnwb,34.0,Pink,True,Pink,Stranger,733.0,b
nt5jdgqnwb,35.0,Pink,True,Pink,Stranger,590.0,b
nt5jdgqnwb,36.0,Vee,True,Vee,Friend,533.0,n
nt5jdgqnwb,37.0,Vee,True,Vee,Friend,695.0,n
pkcw5zxyb0,1.0,Seal,False,Mark,Friend,3199.0,b
pkcw5zxyb0,2.0,Mark,True,Mark,Friend,2985.0,n
pkcw5zxyb0,3.0,You,True,You,Self,1240.0,v
pkcw5zxyb0,4.0,You,True,You,Self,1278.0,v
pkcw5zxyb0,5.0,You,True,You,Self,973.0,v
pkcw5zxyb0,6.0,You,True,You,Self,899.0,v
pkcw5zxyb0,7.0,You,True,You,Self,871.0,v
pkcw5zxyb0,8.0,Seal,True,Seal,Stranger,1242.0,b
pkcw5zxyb0,9.0,Seal,True,Seal,Stranger,683.0,b
pkcw5zxyb0,10.0,Seal,True,Seal,Stranger,566.0,b
pkcw5zxyb0,11.0,You,True,You,Self,645.0,v
pkcw5zxyb0,12.0,Mark,True,Mark,Friend,932.0,n
pkcw5zxyb0,13.0,Seal,True,Seal,Stranger,1050.0,b
pkcw5zxyb0,14.0,Seal,True,Seal,Stranger,626.0,b
pkcw5zxyb0,15.0,Seal,True,Seal,Stranger,577.0,b
pkcw5zxyb0,16.0,You,True,You,Self,1202.0,v
pkcw5zxyb0,17.0,You,True,You,Self,641.0,v
pkcw5zxyb0,18.0,Seal,True,Seal,Stranger,976.0,b
pkcw5zxyb0,19.0,Seal,True,Seal,Stranger,820.0,b
pkcw5zxyb0,20.0,Seal,True,Seal,Stranger,575.0,b
rf53ugeqms,1.0,Laura,True,Laura,Friend,4069.0,n
rf53ugeqms,2.0,You,False,Sting,Stranger,1982.0,v
rf53ugeqms,3.0,Laura,True,Laura,Friend,1330.0,n
rf53ugeqms,4.0,You,True,You,Self,717.0,v
rf53ugeqms,5.0,You,True,You,Self,720.0,v
rf53ugeqms,6.0,You,True,You,Self,652.0,v
rf53ugeqms,7.0,Laura,True,Laura,Friend,994.0,n
rf53ugeqms,8.0,Sting,True,Sting,Stranger,403.0,b
rf53ugeqms,9.0,You,True,You,Self,531.0,v
rf53ugeqms,10.0,Laura,True,Laura,Friend,970.0,n
rf53ugeqms,11.0,Laura,True,Laura,Friend,447.0,n
rf53ugeqms,12.0,Sting,False,You,Self,443.0,b
rf53ugeqms,13.0,Laura,True,Laura,Friend,650.0,n
rf53ugeqms,14.0,Sting,True,Sting,Stranger,651.0,b
rf53ugeqms,15.0,You,True,You,Self,558.0,v
rf53ugeqms,16.0,Laura,True,Laura,Friend,620.0,n
rf53ugeqms,17.0,You,True,You,Self,649.0,v
rf53ugeqms,18.0,You,True,You,Self,1314.0,v
rf53ugeqms,19.0,Laura,True,Laura,Friend,575.0,n
rf53ugeqms,20.0,Sting,True,Sting,Stranger,551.0,b
rf53ugeqms,21.0,You,True,You,Self,546.0,v
rf53ugeqms,22.0,Laura,True,Laura,Friend,440.0,n
rf53ugeqms,23.0,Sting,True,Sting,Stranger,589.0,b
rf53ugeqms,24.0,Laura,True,Laura,Friend,500.0,n
rf53ugeqms,25.0,You,True,You,Self,569.0,v
rf53ugeqms,26.0,You,True,You,Self,468.0,v
rf53ugeqms,27.0,You,True,You,Self,400.0,v
rf53ugeqms,28.0,Sting,True,Sting,Stranger,568.0,b
rf53ugeqms,29.0,Sting,True,Sting,Stranger,665.0,b
rf53ugeqms,30.0,Sting,True,Sting,Stranger,808.0,b
rf53ugeqms,31.0,You,True,You,Self,1037.0,v
g2y9cq189j,1.0,Anita,True,Anita,Friend,2530.0,n
g2y9cq189j,2.0,Madonna,True,Madonna,Stranger,1038.0,b
g2y9cq189j,3.0,You,True,You,Self,913.0,v
g2y9cq189j,4.0,Madonna,True,Madonna,Stranger,1080.0,b
g2y9cq189j,5.0,You,True,You,Self,792.0,v
g2y9cq189j,6.0,You,True,You,Self,744.0,v
g2y9cq189j,7.0,Madonna,True,Madonna,Stranger,868.0,b
g2y9cq189j,8.0,Anita,True,Anita,Friend,875.0,n
g2y9cq189j,9.0,Madonna,True,Madonna,Stranger,1040.0,b
g2y9cq189j,10.0,You,True,You,Self,914.0,v
g2y9cq189j,11.0,Anita,True,Anita,Friend,1774.0,n
g2y9cq189j,12.0,Anita,True,Anita,Friend,849.0,n
g2y9cq189j,13.0,Madonna,True,Madonna,Stranger,841.0,b
g2y9cq189j,14.0,Madonna,True,Madonna,Stranger,515.0,b
g2y9cq189j,15.0,Anita,True,Anita,Friend,828.0,n
g2y9cq189j,16.0,Anita,True,Anita,Friend,824.0,n
g2y9cq189j,17.0,Anita,True,Anita,Friend,1156.0,n
g2y9cq189j,18.0,You,True,You,Self,867.0,v
g2y9cq189j,19.0,You,True,You,Self,504.0,v
sy3hx253v1,1.0,Sting,False,Cristopher,Friend,5247.0,b
sy3hx253v1,2.0,Cristopher,False,You,Self,924.0,n
sy3hx253v1,3.0,You,True,You,Self,358.0,v
sy3hx253v1,4.0,Cristopher,True,Cristopher,Friend,1565.0,n
sy3hx253v1,5.0,Sting,False,You,Self,790.0,b
sy3hx253v1,6.0,Sting,True,Sting,Stranger,705.0,b
sy3hx253v1,7.0,Sting,False,You,Self,980.0,b
sy3hx253v1,8.0,Sting,True,Sting,Stranger,849.0,b
sy3hx253v1,9.0,You,True,You,Self,1257.0,v
sy3hx253v1,10.0,You,True,You,Self,726.0,v
sy3hx253v1,11.0,Cristopher,True,Cristopher,Friend,382.0,n
sy3hx253v1,12.0,Sting,True,Sting,Stranger,725.0,b
sy3hx253v1,13.0,Sting,True,Sting,Stranger,571.0,b
sy3hx253v1,14.0,Cristopher,True,Cristopher,Friend,532.0,n
sy3hx253v1,15.0,You,True,You,Self,495.0,v
sy3hx253v1,16.0,You,True,You,Self,888.0,v
sy3hx253v1,17.0,Sting,True,Sting,Stranger,356.0,b
sy3hx253v1,18.0,Cristopher,True,Cristopher,Friend,347.0,n
sy3hx253v1,19.0,Cristopher,True,Cristopher,Friend,589.0,n
sy3hx253v1,20.0,Cristopher,True,Cristopher,Friend,2138.0,n
sy3hx253v1,21.0,You,True,You,Self,700.0,v
sy3hx253v1,22.0,Sting,True,Sting,Stranger,1022.0,b
sy3hx253v1,23.0,Cristopher,True,Cristopher,Friend,400.0,n
sy3hx253v1,24.0,Sting,True,Sting,Stranger,1011.0,b
sy3hx253v1,25.0,Cristopher,True,Cristopher,Friend,383.0,n
sy3hx253v1,26.0,Cristopher,True,Cristopher,Friend,445.0,n
cag9mbpevo,1.0,You,True,You,Self,2127.0,v
cag9mbpevo,2.0,xxx,False,Eminem,Stranger,1919.0,n
cag9mbpevo,3.0,xxx,True,xxx,Friend,1104.0,n
cag9mbpevo,4.0,xxx,True,xxx,Friend,997.0,n
cag9mbpevo,5.0,Eminem,True,Eminem,Stranger,715.0,b
cag9mbpevo,6.0,Eminem,True,Eminem,Stranger,536.0,b
cag9mbpevo,7.0,xxx,True,xxx,Friend,716.0,n
cag9mbpevo,8.0,xxx,True,xxx,Friend,561.0,n
cag9mbpevo,9.0,Eminem,True,Eminem,Stranger,1053.0,b
cag9mbpevo,10.0,xxx,True,xxx,Friend,670.0,n
cag9mbpevo,11.0,Eminem,True,Eminem,Stranger,660.0,b
cag9mbpevo,12.0,You,True,You,Self,1300.0,v
cag9mbpevo,13.0,xxx,True,xxx,Friend,1369.0,n
cag9mbpevo,14.0,Eminem,True,Eminem,Stranger,728.0,b
cag9mbpevo,15.0,xxx,True,xxx,Friend,877.0,n
cag9mbpevo,16.0,xxx,True,xxx,Friend,603.0,n
cag9mbpevo,17.0,You,True,You,Self,861.0,v
cag9mbpevo,18.0,xxx,True,xxx,Friend,1049.0,n
cag9mbpevo,19.0,Eminem,True,Eminem,Stranger,495.0,b
cag9mbpevo,20.0,You,True,You,Self,666.0,v
cag9mbpevo,21.0,xxx,True,xxx,Friend,1160.0,n
0p3e3fqh0w,1.0,Eminem,True,Eminem,Stranger,1364.0,b
0p3e3fqh0w,2.0,xxx,True,xxx,Friend,769.0,n
0p3e3fqh0w,3.0,xxx,True,xxx,Friend,594.0,n
0p3e3fqh0w,4.0,xxx,True,xxx,Friend,937.0,n
0p3e3fqh0w,5.0,xxx,True,xxx,Friend,660.0,n
0p3e3fqh0w,6.0,You,True,You,Self,832.0,v
