Participant,Trial,Label_Stranger,Label_Friend,Label_Condition,Shape,RT,Response,Answer,Correct
v3hkn0g0za,1.0,Eminem,Eric,Stranger,carré,1349.0,i,match,False
v3hkn0g0za,2.0,Eminem,Eric,Friend,carré,1637.0,i,match,True
v3hkn0g0za,3.0,Eminem,Eric,Stranger,triangle,1077.0,i,match,True
v3hkn0g0za,4.0,Eminem,Eric,Stranger,carré,1126.0,e,mismatch,True
v3hkn0g0za,5.0,Eminem,Eric,Stranger,cercle,1137.0,e,mismatch,True
v3hkn0g0za,6.0,Eminem,Eric,Self,carré,980.0,e,mismatch,True
v3hkn0g0za,7.0,Eminem,Eric,Friend,carré,1276.0,i,match,True
v3hkn0g0za,8.0,Eminem,Eric,Self,carré,928.0,e,mismatch,True
v3hkn0g0za,9.0,Eminem,Eric,Stranger,triangle,1394.0,i,match,True
v3hkn0g0za,10.0,Eminem,Eric,Stranger,carré,1071.0,e,mismatch,True
v3hkn0g0za,11.0,Eminem,Eric,Stranger,triangle,863.0,i,match,True
v3hkn0g0za,12.0,Eminem,Eric,Friend,cercle,1093.0,e,mismatch,True
v3hkn0g0za,13.0,Eminem,Eric,Self,cercle,790.0,i,match,True
v3hkn0g0za,14.0,Eminem,Eric,Friend,carré,1397.0,i,match,True
v3hkn0g0za,15.0,Eminem,Eric,Self,carré,771.0,e,mismatch,True
v3hkn0g0za,16.0,Eminem,Eric,Self,carré,863.0,e,mismatch,True
v3hkn0g0za,17.0,Eminem,Eric,Stranger,carré,1034.0,e,mismatch,True
v3hkn0g0za,18.0,Eminem,Eric,Friend,triangle,1036.0,e,mismatch,True
v3hkn0g0za,19.0,Eminem,Eric,Stranger,carré,1078.0,e,mismatch,True
v3hkn0g0za,20.0,Eminem,Eric,Stranger,cercle,680.0,e,mismatch,True
v3hkn0g0za,21.0,Eminem,Eric,Friend,cercle,769.0,i,match,False
v3hkn0g0za,22.0,Eminem,Eric,Stranger,triangle,992.0,i,match,True
v3hkn0g0za,23.0,Eminem,Eric,Stranger,cercle,715.0,e,mismatch,True
v3hkn0g0za,24.0,Eminem,Eric,Friend,cercle,1098.0,e,mismatch,True
v3hkn0g0za,25.0,Eminem,Eric,Self,triangle,881.0,i,match,False
v3hkn0g0za,26.0,Eminem,Eric,Friend,triangle,1079.0,e,mismatch,True
v3hkn0g0za,27.0,Eminem,Eric,Self,cercle,,,,False
v3hkn0g0za,28.0,Eminem,Eric,Stranger,triangle,1746.0,i,match,True
v3hkn0g0za,29.0,Eminem,Eric,Friend,triangle,701.0,e,mismatch,True
v3hkn0g0za,30.0,Eminem,Eric,Friend,cercle,938.0,e,mismatch,True
v3hkn0g0za,31.0,Eminem,Eric,Stranger,triangle,773.0,i,match,True
v3hkn0g0za,32.0,Eminem,Eric,Stranger,cercle,923.0,e,mismatch,True
v3hkn0g0za,33.0,Eminem,Eric,Friend,cercle,881.0,e,mismatch,True
v3hkn0g0za,34.0,Eminem,Eric,Friend,carré,688.0,i,match,True
v3hkn0g0za,35.0,Eminem,Eric,Friend,cercle,888.0,e,mismatch,True
v3hkn0g0za,36.0,Eminem,Eric,Friend,carré,812.0,i,match,True
v3hkn0g0za,37.0,Eminem,Eric,Self,carré,1385.0,e,mismatch,True
v3hkn0g0za,38.0,Eminem,Eric,Friend,carré,773.0,i,match,True
v3hkn0g0za,39.0,Eminem,Eric,Self,triangle,942.0,e,mismatch,True
v3hkn0g0za,40.0,Eminem,Eric,Self,carré,662.0,e,mismatch,True
v3hkn0g0za,41.0,Eminem,Eric,Self,cercle,648.0,i,match,True
v3hkn0g0za,42.0,Eminem,Eric,Stranger,triangle,677.0,i,match,True
v3hkn0g0za,43.0,Eminem,Eric,Self,carré,814.0,e,mismatch,True
v3hkn0g0za,44.0,Eminem,Eric,Self,triangle,655.0,e,mismatch,True
v3hkn0g0za,45.0,Eminem,Eric,Friend,cercle,810.0,e,mismatch,True
v3hkn0g0za,46.0,Eminem,Eric,Stranger,cercle,957.0,e,mismatch,True
v3hkn0g0za,47.0,Eminem,Eric,Friend,carré,1145.0,i,match,True
v3hkn0g0za,48.0,Eminem,Eric,Self,triangle,801.0,e,mismatch,True
v3hkn0g0za,49.0,Eminem,Eric,Self,triangle,922.0,e,mismatch,True
v3hkn0g0za,50.0,Eminem,Eric,Friend,carré,892.0,i,match,True
v3hkn0g0za,51.0,Eminem,Eric,Stranger,carré,1156.0,e,mismatch,True
v3hkn0g0za,52.0,Eminem,Eric,Self,triangle,864.0,e,mismatch,True
v3hkn0g0za,53.0,Eminem,Eric,Stranger,cercle,884.0,e,mismatch,True
v3hkn0g0za,54.0,Eminem,Eric,Stranger,carré,909.0,e,mismatch,True
v3hkn0g0za,55.0,Eminem,Eric,Self,cercle,1271.0,i,match,True
v3hkn0g0za,56.0,Eminem,Eric,Stranger,cercle,642.0,e,mismatch,True
v3hkn0g0za,57.0,Eminem,Eric,Friend,cercle,728.0,e,mismatch,True
v3hkn0g0za,58.0,Eminem,Eric,Stranger,cercle,875.0,e,mismatch,True
v3hkn0g0za,59.0,Eminem,Eric,Stranger,cercle,536.0,e,mismatch,True
v3hkn0g0za,60.0,Eminem,Eric,Friend,cercle,880.0,e,mismatch,True
v3hkn0g0za,61.0,Eminem,Eric,Friend,triangle,1097.0,e,mismatch,True
v3hkn0g0za,62.0,Eminem,Eric,Friend,carré,678.0,i,match,True
v3hkn0g0za,63.0,Eminem,Eric,Stranger,carré,806.0,e,mismatch,True
v3hkn0g0za,64.0,Eminem,Eric,Self,cercle,816.0,i,match,True
v3hkn0g0za,65.0,Eminem,Eric,Stranger,cercle,698.0,e,mismatch,True
v3hkn0g0za,66.0,Eminem,Eric,Self,cercle,753.0,i,match,True
v3hkn0g0za,67.0,Eminem,Eric,Friend,carré,844.0,i,match,True
v3hkn0g0za,68.0,Eminem,Eric,Friend,carré,896.0,e,mismatch,False
v3hkn0g0za,69.0,Eminem,Eric,Self,triangle,1002.0,e,mismatch,True
v3hkn0g0za,70.0,Eminem,Eric,Stranger,cercle,791.0,e,mismatch,True
v3hkn0g0za,71.0,Eminem,Eric,Stranger,triangle,968.0,i,match,True
v3hkn0g0za,72.0,Eminem,Eric,Self,triangle,1074.0,e,mismatch,True
v3hkn0g0za,73.0,Eminem,Eric,Friend,cercle,685.0,e,mismatch,True
v3hkn0g0za,74.0,Eminem,Eric,Self,cercle,705.0,i,match,True
v3hkn0g0za,75.0,Eminem,Eric,Stranger,carré,837.0,e,mismatch,True
v3hkn0g0za,76.0,Eminem,Eric,Stranger,carré,715.0,e,mismatch,True
v3hkn0g0za,77.0,Eminem,Eric,Friend,carré,798.0,i,match,True
v3hkn0g0za,78.0,Eminem,Eric,Stranger,triangle,745.0,e,mismatch,False
v3hkn0g0za,79.0,Eminem,Eric,Stranger,carré,1528.0,e,mismatch,True
v3hkn0g0za,80.0,Eminem,Eric,Friend,triangle,716.0,e,mismatch,True
v3hkn0g0za,81.0,Eminem,Eric,Self,triangle,939.0,e,mismatch,True
v3hkn0g0za,82.0,Eminem,Eric,Friend,cercle,888.0,e,mismatch,True
v3hkn0g0za,83.0,Eminem,Eric,Self,carré,966.0,e,mismatch,True
v3hkn0g0za,84.0,Eminem,Eric,Self,carré,706.0,e,mismatch,True
v3hkn0g0za,85.0,Eminem,Eric,Friend,cercle,819.0,e,mismatch,True
v3hkn0g0za,86.0,Eminem,Eric,Friend,carré,529.0,e,mismatch,False
v3hkn0g0za,87.0,Eminem,Eric,Friend,triangle,837.0,e,mismatch,True
v3hkn0g0za,88.0,Eminem,Eric,Stranger,triangle,961.0,i,match,True
v3hkn0g0za,89.0,Eminem,Eric,Stranger,carré,747.0,e,mismatch,True
v3hkn0g0za,90.0,Eminem,Eric,Self,triangle,1144.0,e,mismatch,True
v3hkn0g0za,91.0,Eminem,Eric,Friend,triangle,788.0,e,mismatch,True
v3hkn0g0za,92.0,Eminem,Eric,Friend,triangle,725.0,e,mismatch,True
v3hkn0g0za,93.0,Eminem,Eric,Self,cercle,706.0,i,match,True
v3hkn0g0za,94.0,Eminem,Eric,Friend,carré,675.0,i,match,True
v3hkn0g0za,95.0,Eminem,Eric,Self,carré,746.0,e,mismatch,True
v3hkn0g0za,96.0,Eminem,Eric,Stranger,cercle,1309.0,e,mismatch,True
v3hkn0g0za,97.0,Eminem,Eric,Stranger,carré,735.0,e,mismatch,True
v3hkn0g0za,98.0,Eminem,Eric,Stranger,cercle,617.0,e,mismatch,True
v3hkn0g0za,99.0,Eminem,Eric,Self,carré,1110.0,e,mismatch,True
v3hkn0g0za,100.0,Eminem,Eric,Stranger,cercle,1464.0,e,mismatch,True
v3hkn0g0za,101.0,Eminem,Eric,Stranger,carré,1008.0,e,mismatch,True
v3hkn0g0za,102.0,Eminem,Eric,Stranger,triangle,778.0,i,match,True
v3hkn0g0za,103.0,Eminem,Eric,Stranger,carré,1051.0,e,mismatch,True
v3hkn0g0za,104.0,Eminem,Eric,Self,cercle,993.0,i,match,True
v3hkn0g0za,105.0,Eminem,Eric,Self,triangle,994.0,e,mismatch,True
v3hkn0g0za,106.0,Eminem,Eric,Friend,cercle,957.0,e,mismatch,True
v3hkn0g0za,107.0,Eminem,Eric,Self,carré,814.0,e,mismatch,True
v3hkn0g0za,108.0,Eminem,Eric,Self,triangle,793.0,e,mismatch,True
v3hkn0g0za,109.0,Eminem,Eric,Self,carré,800.0,e,mismatch,True
v3hkn0g0za,110.0,Eminem,Eric,Stranger,triangle,929.0,i,match,True
v3hkn0g0za,111.0,Eminem,Eric,Friend,carré,952.0,i,match,True
v3hkn0g0za,112.0,Eminem,Eric,Self,carré,645.0,e,mismatch,True
v3hkn0g0za,113.0,Eminem,Eric,Friend,cercle,1052.0,e,mismatch,True
v3hkn0g0za,114.0,Eminem,Eric,Stranger,cercle,789.0,e,mismatch,True
v3hkn0g0za,115.0,Eminem,Eric,Friend,cercle,876.0,e,mismatch,True
v3hkn0g0za,116.0,Eminem,Eric,Self,cercle,787.0,i,match,True
v3hkn0g0za,117.0,Eminem,Eric,Friend,cercle,816.0,i,match,False
v3hkn0g0za,118.0,Eminem,Eric,Self,cercle,687.0,i,match,True
v3hkn0g0za,119.0,Eminem,Eric,Self,cercle,839.0,i,match,True
v3hkn0g0za,120.0,Eminem,Eric,Stranger,carré,899.0,e,mismatch,True
v3hkn0g0za,121.0,Eminem,Eric,Self,carré,958.0,e,mismatch,True
v3hkn0g0za,122.0,Eminem,Eric,Stranger,carré,802.0,e,mismatch,True
v3hkn0g0za,123.0,Eminem,Eric,Stranger,carré,814.0,e,mismatch,True
v3hkn0g0za,124.0,Eminem,Eric,Friend,carré,825.0,e,mismatch,False
v3hkn0g0za,125.0,Eminem,Eric,Self,cercle,698.0,i,match,True
v3hkn0g0za,126.0,Eminem,Eric,Self,carré,917.0,e,mismatch,True
v3hkn0g0za,127.0,Eminem,Eric,Stranger,cercle,733.0,e,mismatch,True
v3hkn0g0za,128.0,Eminem,Eric,Self,cercle,952.0,i,match,True
v3hkn0g0za,129.0,Eminem,Eric,Friend,triangle,828.0,e,mismatch,True
v3hkn0g0za,130.0,Eminem,Eric,Self,triangle,1047.0,e,mismatch,True
v3hkn0g0za,131.0,Eminem,Eric,Friend,triangle,994.0,e,mismatch,True
v3hkn0g0za,132.0,Eminem,Eric,Self,triangle,711.0,e,mismatch,True
v3hkn0g0za,133.0,Eminem,Eric,Stranger,cercle,626.0,e,mismatch,True
v3hkn0g0za,134.0,Eminem,Eric,Self,cercle,786.0,i,match,True
v3hkn0g0za,135.0,Eminem,Eric,Friend,triangle,768.0,e,mismatch,True
v3hkn0g0za,136.0,Eminem,Eric,Self,triangle,754.0,e,mismatch,True
v3hkn0g0za,137.0,Eminem,Eric,Stranger,carré,1668.0,e,mismatch,True
v3hkn0g0za,138.0,Eminem,Eric,Friend,triangle,972.0,e,mismatch,True
v3hkn0g0za,139.0,Eminem,Eric,Friend,triangle,834.0,e,mismatch,True
v3hkn0g0za,140.0,Eminem,Eric,Stranger,carré,1261.0,e,mismatch,True
v3hkn0g0za,141.0,Eminem,Eric,Self,cercle,863.0,i,match,True
v3hkn0g0za,142.0,Eminem,Eric,Friend,carré,708.0,e,mismatch,False
v3hkn0g0za,143.0,Eminem,Eric,Stranger,carré,1192.0,e,mismatch,True
v3hkn0g0za,144.0,Eminem,Eric,Friend,cercle,711.0,e,mismatch,True
v3hkn0g0za,145.0,Eminem,Eric,Friend,carré,683.0,i,match,True
v3hkn0g0za,146.0,Eminem,Eric,Friend,triangle,761.0,e,mismatch,True
v3hkn0g0za,147.0,Eminem,Eric,Stranger,triangle,919.0,i,match,True
v3hkn0g0za,148.0,Eminem,Eric,Stranger,carré,736.0,e,mismatch,True
v3hkn0g0za,149.0,Eminem,Eric,Stranger,carré,754.0,e,mismatch,True
v3hkn0g0za,150.0,Eminem,Eric,Friend,cercle,831.0,e,mismatch,True
v3hkn0g0za,151.0,Eminem,Eric,Self,cercle,1123.0,i,match,True
v3hkn0g0za,152.0,Eminem,Eric,Self,cercle,645.0,i,match,True
v3hkn0g0za,153.0,Eminem,Eric,Self,carré,1450.0,e,mismatch,True
v3hkn0g0za,154.0,Eminem,Eric,Stranger,cercle,872.0,e,mismatch,True
v3hkn0g0za,155.0,Eminem,Eric,Self,cercle,775.0,i,match,True
v3hkn0g0za,156.0,Eminem,Eric,Self,triangle,676.0,e,mismatch,True
v3hkn0g0za,157.0,Eminem,Eric,Stranger,cercle,877.0,e,mismatch,True
v3hkn0g0za,158.0,Eminem,Eric,Self,carré,1125.0,e,mismatch,True
v3hkn0g0za,159.0,Eminem,Eric,Friend,triangle,801.0,e,mismatch,True
v3hkn0g0za,160.0,Eminem,Eric,Self,triangle,906.0,e,mismatch,True
v3hkn0g0za,161.0,Eminem,Eric,Self,triangle,755.0,e,mismatch,True
v3hkn0g0za,162.0,Eminem,Eric,Stranger,cercle,672.0,e,mismatch,True
v3hkn0g0za,163.0,Eminem,Eric,Self,triangle,710.0,e,mismatch,True
v3hkn0g0za,164.0,Eminem,Eric,Self,triangle,599.0,e,mismatch,True
v3hkn0g0za,165.0,Eminem,Eric,Self,carré,822.0,e,mismatch,True
v3hkn0g0za,166.0,Eminem,Eric,Stranger,triangle,777.0,e,mismatch,False
v3hkn0g0za,167.0,Eminem,Eric,Self,cercle,1039.0,i,match,True
v3hkn0g0za,168.0,Eminem,Eric,Friend,cercle,678.0,e,mismatch,True
v3hkn0g0za,169.0,Eminem,Eric,Self,cercle,938.0,i,match,True
v3hkn0g0za,170.0,Eminem,Eric,Self,carré,749.0,e,mismatch,True
v3hkn0g0za,171.0,Eminem,Eric,Friend,cercle,1553.0,e,mismatch,True
v3hkn0g0za,172.0,Eminem,Eric,Stranger,cercle,972.0,e,mismatch,True
v3hkn0g0za,173.0,Eminem,Eric,Friend,cercle,882.0,e,mismatch,True
v3hkn0g0za,174.0,Eminem,Eric,Stranger,triangle,944.0,i,match,True
v3hkn0g0za,175.0,Eminem,Eric,Self,triangle,747.0,e,mismatch,True
v3hkn0g0za,176.0,Eminem,Eric,Stranger,carré,1015.0,e,mismatch,True
v3hkn0g0za,177.0,Eminem,Eric,Self,cercle,1602.0,i,match,True
v3hkn0g0za,178.0,Eminem,Eric,Friend,cercle,1316.0,e,mismatch,True
v3hkn0g0za,179.0,Eminem,Eric,Self,triangle,891.0,e,mismatch,True
v3hkn0g0za,180.0,Eminem,Eric,Self,carré,836.0,e,mismatch,True
v3hkn0g0za,181.0,Eminem,Eric,Self,cercle,606.0,i,match,True
v3hkn0g0za,182.0,Eminem,Eric,Self,carré,775.0,e,mismatch,True
v3hkn0g0za,183.0,Eminem,Eric,Friend,cercle,907.0,e,mismatch,True
v3hkn0g0za,184.0,Eminem,Eric,Friend,cercle,718.0,e,mismatch,True
v3hkn0g0za,185.0,Eminem,Eric,Self,carré,721.0,e,mismatch,True
v3hkn0g0za,186.0,Eminem,Eric,Friend,triangle,971.0,e,mismatch,True
v3hkn0g0za,187.0,Eminem,Eric,Friend,cercle,959.0,e,mismatch,True
v3hkn0g0za,188.0,Eminem,Eric,Friend,cercle,806.0,e,mismatch,True
v3hkn0g0za,189.0,Eminem,Eric,Friend,carré,658.0,i,match,True
v3hkn0g0za,190.0,Eminem,Eric,Stranger,carré,662.0,e,mismatch,True
v3hkn0g0za,191.0,Eminem,Eric,Friend,cercle,876.0,e,mismatch,True
v3hkn0g0za,192.0,Eminem,Eric,Self,triangle,1510.0,e,mismatch,True
v3hkn0g0za,193.0,Eminem,Eric,Friend,carré,1964.0,i,match,True
v3hkn0g0za,194.0,Eminem,Eric,Friend,carré,869.0,i,match,True
v3hkn0g0za,195.0,Eminem,Eric,Friend,triangle,567.0,e,mismatch,True
v3hkn0g0za,196.0,Eminem,Eric,Self,carré,1226.0,e,mismatch,True
v3hkn0g0za,197.0,Eminem,Eric,Friend,cercle,679.0,e,mismatch,True
v3hkn0g0za,198.0,Eminem,Eric,Self,carré,713.0,e,mismatch,True
v3hkn0g0za,199.0,Eminem,Eric,Self,cercle,783.0,i,match,True
v3hkn0g0za,200.0,Eminem,Eric,Friend,carré,1073.0,i,match,True
v3hkn0g0za,201.0,Eminem,Eric,Friend,cercle,921.0,e,mismatch,True
v3hkn0g0za,202.0,Eminem,Eric,Self,carré,1105.0,e,mismatch,True
v3hkn0g0za,203.0,Eminem,Eric,Self,cercle,855.0,i,match,True
v3hkn0g0za,204.0,Eminem,Eric,Self,triangle,686.0,e,mismatch,True
v3hkn0g0za,205.0,Eminem,Eric,Self,triangle,785.0,e,mismatch,True
v3hkn0g0za,206.0,Eminem,Eric,Self,triangle,574.0,e,mismatch,True
v3hkn0g0za,207.0,Eminem,Eric,Self,cercle,683.0,i,match,True
v3hkn0g0za,208.0,Eminem,Eric,Self,triangle,638.0,e,mismatch,True
v3hkn0g0za,209.0,Eminem,Eric,Stranger,triangle,1047.0,i,match,True
v3hkn0g0za,210.0,Eminem,Eric,Friend,triangle,999.0,e,mismatch,True
v3hkn0g0za,211.0,Eminem,Eric,Stranger,cercle,951.0,e,mismatch,True
v3hkn0g0za,212.0,Eminem,Eric,Friend,triangle,1073.0,e,mismatch,True
v3hkn0g0za,213.0,Eminem,Eric,Stranger,triangle,949.0,i,match,True
v3hkn0g0za,214.0,Eminem,Eric,Self,cercle,779.0,i,match,True
v3hkn0g0za,215.0,Eminem,Eric,Self,triangle,691.0,e,mismatch,True
v3hkn0g0za,216.0,Eminem,Eric,Self,carré,788.0,e,mismatch,True
v3hkn0g0za,217.0,Eminem,Eric,Friend,triangle,861.0,e,mismatch,True
v3hkn0g0za,218.0,Eminem,Eric,Stranger,cercle,707.0,e,mismatch,True
v3hkn0g0za,219.0,Eminem,Eric,Stranger,triangle,722.0,i,match,True
v3hkn0g0za,220.0,Eminem,Eric,Stranger,carré,729.0,e,mismatch,True
v3hkn0g0za,221.0,Eminem,Eric,Friend,triangle,1263.0,e,mismatch,True
v3hkn0g0za,222.0,Eminem,Eric,Friend,triangle,963.0,e,mismatch,True
v3hkn0g0za,223.0,Eminem,Eric,Stranger,triangle,811.0,e,mismatch,False
v3hkn0g0za,224.0,Eminem,Eric,Stranger,triangle,595.0,i,match,True
v3hkn0g0za,225.0,Eminem,Eric,Self,cercle,,,,False
v3hkn0g0za,226.0,Eminem,Eric,Self,triangle,1760.0,e,mismatch,True
v3hkn0g0za,227.0,Eminem,Eric,Friend,carré,1406.0,i,match,True
v3hkn0g0za,228.0,Eminem,Eric,Friend,triangle,1293.0,e,mismatch,True
v3hkn0g0za,229.0,Eminem,Eric,Friend,carré,1344.0,i,match,True
v3hkn0g0za,230.0,Eminem,Eric,Friend,cercle,721.0,e,mismatch,True
v3hkn0g0za,231.0,Eminem,Eric,Stranger,carré,1368.0,e,mismatch,True
v3hkn0g0za,232.0,Eminem,Eric,Friend,cercle,761.0,e,mismatch,True
v3hkn0g0za,233.0,Eminem,Eric,Stranger,triangle,872.0,i,match,True
v3hkn0g0za,234.0,Eminem,Eric,Friend,cercle,766.0,e,mismatch,True
v3hkn0g0za,235.0,Eminem,Eric,Stranger,cercle,913.0,e,mismatch,True
v3hkn0g0za,236.0,Eminem,Eric,Self,cercle,468.0,i,match,True
v3hkn0g0za,237.0,Eminem,Eric,Stranger,carré,887.0,e,mismatch,True
v3hkn0g0za,238.0,Eminem,Eric,Self,triangle,814.0,e,mismatch,True
v3hkn0g0za,239.0,Eminem,Eric,Self,cercle,1507.0,i,match,True
v3hkn0g0za,240.0,Eminem,Eric,Friend,triangle,757.0,e,mismatch,True
v3hkn0g0za,241.0,Eminem,Eric,Stranger,carré,719.0,e,mismatch,True
v3hkn0g0za,242.0,Eminem,Eric,Stranger,cercle,748.0,e,mismatch,True
v3hkn0g0za,243.0,Eminem,Eric,Friend,carré,825.0,i,match,True
v3hkn0g0za,244.0,Eminem,Eric,Stranger,triangle,669.0,e,mismatch,False
v3hkn0g0za,245.0,Eminem,Eric,Friend,triangle,794.0,e,mismatch,True
v3hkn0g0za,246.0,Eminem,Eric,Stranger,cercle,622.0,e,mismatch,True
v3hkn0g0za,247.0,Eminem,Eric,Stranger,cercle,870.0,e,mismatch,True
v3hkn0g0za,248.0,Eminem,Eric,Friend,cercle,1151.0,e,mismatch,True
v3hkn0g0za,249.0,Eminem,Eric,Stranger,carré,949.0,e,mismatch,True
v3hkn0g0za,250.0,Eminem,Eric,Friend,carré,757.0,i,match,True
v3hkn0g0za,251.0,Eminem,Eric,Self,cercle,774.0,i,match,True
v3hkn0g0za,252.0,Eminem,Eric,Self,carré,1003.0,e,mismatch,True
v3hkn0g0za,253.0,Eminem,Eric,Friend,triangle,1004.0,e,mismatch,True
v3hkn0g0za,254.0,Eminem,Eric,Self,triangle,1092.0,e,mismatch,True
v3hkn0g0za,255.0,Eminem,Eric,Stranger,triangle,1266.0,e,mismatch,False
v3hkn0g0za,256.0,Eminem,Eric,Stranger,triangle,781.0,i,match,True
v3hkn0g0za,257.0,Eminem,Eric,Stranger,triangle,738.0,i,match,True
v3hkn0g0za,258.0,Eminem,Eric,Friend,carré,714.0,i,match,True
v3hkn0g0za,259.0,Eminem,Eric,Friend,triangle,862.0,e,mismatch,True
v3hkn0g0za,260.0,Eminem,Eric,Stranger,cercle,1397.0,e,mismatch,True
v3hkn0g0za,261.0,Eminem,Eric,Stranger,triangle,670.0,i,match,True
v3hkn0g0za,262.0,Eminem,Eric,Stranger,cercle,685.0,e,mismatch,True
v3hkn0g0za,263.0,Eminem,Eric,Self,triangle,885.0,e,mismatch,True
v3hkn0g0za,264.0,Eminem,Eric,Stranger,triangle,1077.0,i,match,True
v3hkn0g0za,265.0,Eminem,Eric,Friend,carré,657.0,i,match,True
v3hkn0g0za,266.0,Eminem,Eric,Self,carré,1100.0,e,mismatch,True
v3hkn0g0za,267.0,Eminem,Eric,Self,carré,752.0,e,mismatch,True
v3hkn0g0za,268.0,Eminem,Eric,Friend,cercle,868.0,e,mismatch,True
v3hkn0g0za,269.0,Eminem,Eric,Friend,triangle,817.0,e,mismatch,True
v3hkn0g0za,270.0,Eminem,Eric,Stranger,carré,909.0,e,mismatch,True
v3hkn0g0za,271.0,Eminem,Eric,Self,triangle,651.0,e,mismatch,True
v3hkn0g0za,272.0,Eminem,Eric,Stranger,carré,861.0,e,mismatch,True
v3hkn0g0za,273.0,Eminem,Eric,Stranger,cercle,822.0,e,mismatch,True
v3hkn0g0za,274.0,Eminem,Eric,Stranger,triangle,877.0,i,match,True
v3hkn0g0za,275.0,Eminem,Eric,Stranger,cercle,997.0,e,mismatch,True
v3hkn0g0za,276.0,Eminem,Eric,Self,carré,802.0,e,mismatch,True
v3hkn0g0za,277.0,Eminem,Eric,Self,cercle,690.0,i,match,True
v3hkn0g0za,278.0,Eminem,Eric,Friend,carré,712.0,i,match,True
v3hkn0g0za,279.0,Eminem,Eric,Self,cercle,639.0,i,match,True
v3hkn0g0za,280.0,Eminem,Eric,Friend,triangle,811.0,e,mismatch,True
v3hkn0g0za,281.0,Eminem,Eric,Friend,carré,969.0,i,match,True
v3hkn0g0za,282.0,Eminem,Eric,Self,cercle,623.0,i,match,True
v3hkn0g0za,283.0,Eminem,Eric,Friend,triangle,1056.0,e,mismatch,True
v3hkn0g0za,284.0,Eminem,Eric,Friend,triangle,644.0,e,mismatch,True
v3hkn0g0za,285.0,Eminem,Eric,Stranger,cercle,798.0,e,mismatch,True
v3hkn0g0za,286.0,Eminem,Eric,Friend,carré,857.0,i,match,True
v3hkn0g0za,287.0,Eminem,Eric,Stranger,triangle,774.0,i,match,True
v3hkn0g0za,288.0,Eminem,Eric,Friend,carré,683.0,i,match,True
v3hkn0g0za,289.0,Eminem,Eric,Stranger,carré,913.0,e,mismatch,True
v3hkn0g0za,290.0,Eminem,Eric,Stranger,triangle,849.0,i,match,True
v3hkn0g0za,291.0,Eminem,Eric,Stranger,cercle,657.0,e,mismatch,True
v3hkn0g0za,292.0,Eminem,Eric,Self,carré,1500.0,e,mismatch,True
v3hkn0g0za,293.0,Eminem,Eric,Stranger,cercle,793.0,e,mismatch,True
v3hkn0g0za,294.0,Eminem,Eric,Self,carré,863.0,e,mismatch,True
v3hkn0g0za,295.0,Eminem,Eric,Self,cercle,601.0,i,match,True
v3hkn0g0za,296.0,Eminem,Eric,Friend,cercle,743.0,e,mismatch,True
v3hkn0g0za,297.0,Eminem,Eric,Stranger,triangle,688.0,i,match,True
v3hkn0g0za,298.0,Eminem,Eric,Stranger,cercle,742.0,e,mismatch,True
v3hkn0g0za,299.0,Eminem,Eric,Self,triangle,725.0,e,mismatch,True
v3hkn0g0za,300.0,Eminem,Eric,Stranger,triangle,971.0,i,match,True
v3hkn0g0za,301.0,Eminem,Eric,Friend,carré,757.0,i,match,True
v3hkn0g0za,302.0,Eminem,Eric,Friend,carré,914.0,e,mismatch,False
v3hkn0g0za,303.0,Eminem,Eric,Stranger,carré,760.0,e,mismatch,True
v3hkn0g0za,304.0,Eminem,Eric,Stranger,triangle,672.0,i,match,True
v3hkn0g0za,305.0,Eminem,Eric,Self,triangle,1501.0,e,mismatch,True
v3hkn0g0za,306.0,Eminem,Eric,Friend,carré,830.0,i,match,True
v3hkn0g0za,307.0,Eminem,Eric,Stranger,triangle,778.0,i,match,True
v3hkn0g0za,308.0,Eminem,Eric,Stranger,triangle,671.0,i,match,True
v3hkn0g0za,309.0,Eminem,Eric,Friend,carré,748.0,i,match,True
v3hkn0g0za,310.0,Eminem,Eric,Self,carré,783.0,e,mismatch,True
v3hkn0g0za,311.0,Eminem,Eric,Friend,cercle,757.0,e,mismatch,True
v3hkn0g0za,312.0,Eminem,Eric,Friend,triangle,916.0,e,mismatch,True
v3hkn0g0za,313.0,Eminem,Eric,Self,triangle,798.0,e,mismatch,True
v3hkn0g0za,314.0,Eminem,Eric,Friend,triangle,845.0,e,mismatch,True
v3hkn0g0za,315.0,Eminem,Eric,Stranger,cercle,705.0,e,mismatch,True
v3hkn0g0za,316.0,Eminem,Eric,Friend,triangle,804.0,e,mismatch,True
v3hkn0g0za,317.0,Eminem,Eric,Self,cercle,716.0,i,match,True
v3hkn0g0za,318.0,Eminem,Eric,Friend,triangle,863.0,e,mismatch,True
v3hkn0g0za,319.0,Eminem,Eric,Self,carré,834.0,e,mismatch,True
v3hkn0g0za,320.0,Eminem,Eric,Stranger,carré,886.0,e,mismatch,True
v3hkn0g0za,321.0,Eminem,Eric,Self,carré,975.0,e,mismatch,True
v3hkn0g0za,322.0,Eminem,Eric,Friend,triangle,774.0,e,mismatch,True
v3hkn0g0za,323.0,Eminem,Eric,Stranger,triangle,734.0,e,mismatch,False
v3hkn0g0za,324.0,Eminem,Eric,Stranger,carré,692.0,e,mismatch,True
210h5uz713,1.0,Pink,adonia,Self,cercle,547.0,e,mismatch,True
210h5uz713,2.0,Pink,adonia,Self,carré,386.0,i,match,True
210h5uz713,3.0,Pink,adonia,Self,triangle,447.0,e,mismatch,True
210h5uz713,4.0,Pink,adonia,Stranger,triangle,814.0,i,match,True
210h5uz713,5.0,Pink,adonia,Friend,cercle,517.0,e,mismatch,False
210h5uz713,6.0,Pink,adonia,Self,triangle,629.0,e,mismatch,True
210h5uz713,7.0,Pink,adonia,Self,carré,406.0,i,match,True
210h5uz713,8.0,Pink,adonia,Stranger,cercle,580.0,e,mismatch,True
210h5uz713,9.0,Pink,adonia,Friend,cercle,616.0,i,match,True
210h5uz713,10.0,Pink,adonia,Friend,cercle,595.0,i,match,True
210h5uz713,11.0,Pink,adonia,Self,cercle,503.0,e,mismatch,True
210h5uz713,12.0,Pink,adonia,Stranger,carré,676.0,i,match,False
210h5uz713,13.0,Pink,adonia,Friend,cercle,744.0,i,match,True
210h5uz713,14.0,Pink,adonia,Stranger,carré,624.0,e,mismatch,True
210h5uz713,15.0,Pink,adonia,Friend,triangle,633.0,i,match,False
210h5uz713,16.0,Pink,adonia,Self,carré,33.0,i,match,True
210h5uz713,17.0,Pink,adonia,Self,triangle,611.0,e,mismatch,True
210h5uz713,18.0,Pink,adonia,Self,triangle,503.0,e,mismatch,True
210h5uz713,19.0,Pink,adonia,Friend,cercle,647.0,e,mismatch,False
210h5uz713,20.0,Pink,adonia,Friend,triangle,574.0,e,mismatch,True
210h5uz713,21.0,Pink,adonia,Friend,triangle,628.0,e,mismatch,True
210h5uz713,22.0,Pink,adonia,Stranger,carré,663.0,e,mismatch,True
210h5uz713,23.0,Pink,adonia,Friend,cercle,817.0,e,mismatch,False
210h5uz713,24.0,Pink,adonia,Self,carré,802.0,i,match,True
210h5uz713,25.0,Pink,adonia,Self,cercle,466.0,e,mismatch,True
210h5uz713,26.0,Pink,adonia,Friend,carré,920.0,e,mismatch,True
210h5uz713,27.0,Pink,adonia,Stranger,triangle,846.0,e,mismatch,False
210h5uz713,28.0,Pink,adonia,Friend,carré,871.0,e,mismatch,True
210h5uz713,29.0,Pink,adonia,Self,carré,645.0,i,match,True
210h5uz713,30.0,Pink,adonia,Friend,carré,504.0,e,mismatch,True
210h5uz713,31.0,Pink,adonia,Stranger,carré,853.0,e,mismatch,True
210h5uz713,32.0,Pink,adonia,Stranger,carré,832.0,e,mismatch,True
210h5uz713,33.0,Pink,adonia,Friend,triangle,958.0,e,mismatch,True
210h5uz713,34.0,Pink,adonia,Self,triangle,758.0,e,mismatch,True
210h5uz713,35.0,Pink,adonia,Self,cercle,896.0,e,mismatch,True
210h5uz713,36.0,Pink,adonia,Stranger,triangle,969.0,i,match,True
210h5uz713,37.0,Pink,adonia,Friend,triangle,710.0,e,mismatch,True
210h5uz713,38.0,Pink,adonia,Friend,carré,661.0,e,mismatch,True
210h5uz713,39.0,Pink,adonia,Friend,carré,676.0,e,mismatch,True
210h5uz713,40.0,Pink,adonia,Friend,cercle,625.0,e,mismatch,False
210h5uz713,41.0,Pink,adonia,Self,cercle,585.0,e,mismatch,True
210h5uz713,42.0,Pink,adonia,Friend,carré,651.0,e,mismatch,True
210h5uz713,43.0,Pink,adonia,Self,cercle,521.0,i,match,False
210h5uz713,44.0,Pink,adonia,Friend,triangle,567.0,e,mismatch,True
210h5uz713,45.0,Pink,adonia,Self,triangle,563.0,e,mismatch,True
210h5uz713,46.0,Pink,adonia,Stranger,cercle,677.0,e,mismatch,True
210h5uz713,47.0,Pink,adonia,Stranger,triangle,580.0,e,mismatch,False
210h5uz713,48.0,Pink,adonia,Friend,carré,520.0,e,mismatch,True
210h5uz713,49.0,Pink,adonia,Friend,carré,513.0,e,mismatch,True
210h5uz713,50.0,Pink,adonia,Self,carré,697.0,i,match,True
210h5uz713,51.0,Pink,adonia,Friend,cercle,700.0,i,match,True
210h5uz713,52.0,Pink,adonia,Friend,triangle,502.0,e,mismatch,True
210h5uz713,53.0,Pink,adonia,Stranger,cercle,592.0,e,mismatch,True
210h5uz713,54.0,Pink,adonia,Stranger,cercle,555.0,e,mismatch,True
210h5uz713,55.0,Pink,adonia,Self,cercle,664.0,e,mismatch,True
210h5uz713,56.0,Pink,adonia,Stranger,carré,763.0,e,mismatch,True
210h5uz713,57.0,Pink,adonia,Friend,triangle,714.0,e,mismatch,True
210h5uz713,58.0,Pink,adonia,Self,triangle,524.0,e,mismatch,True
210h5uz713,59.0,Pink,adonia,Friend,cercle,677.0,i,match,True
210h5uz713,60.0,Pink,adonia,Stranger,cercle,481.0,e,mismatch,True
210h5uz713,61.0,Pink,adonia,Stranger,carré,651.0,e,mismatch,True
210h5uz713,62.0,Pink,adonia,Stranger,carré,694.0,e,mismatch,True
210h5uz713,63.0,Pink,adonia,Self,carré,584.0,e,mismatch,False
210h5uz713,64.0,Pink,adonia,Self,triangle,675.0,e,mismatch,True
210h5uz713,65.0,Pink,adonia,Self,carré,545.0,i,match,True
210h5uz713,66.0,Pink,adonia,Stranger,cercle,917.0,e,mismatch,True
210h5uz713,67.0,Pink,adonia,Stranger,carré,457.0,e,mismatch,True
210h5uz713,68.0,Pink,adonia,Friend,carré,430.0,e,mismatch,True
210h5uz713,69.0,Pink,adonia,Friend,triangle,722.0,i,match,False
210h5uz713,70.0,Pink,adonia,Stranger,carré,604.0,e,mismatch,True
210h5uz713,71.0,Pink,adonia,Stranger,carré,384.0,e,mismatch,True
210h5uz713,72.0,Pink,adonia,Self,carré,553.0,i,match,True
210h5uz713,73.0,Pink,adonia,Self,triangle,490.0,e,mismatch,True
210h5uz713,74.0,Pink,adonia,Self,cercle,406.0,e,mismatch,True
210h5uz713,75.0,Pink,adonia,Self,triangle,590.0,e,mismatch,True
210h5uz713,76.0,Pink,adonia,Stranger,cercle,776.0,e,mismatch,True
210h5uz713,77.0,Pink,adonia,Friend,carré,785.0,e,mismatch,True
210h5uz713,78.0,Pink,adonia,Self,cercle,571.0,e,mismatch,True
210h5uz713,79.0,Pink,adonia,Stranger,triangle,725.0,i,match,True
210h5uz713,80.0,Pink,adonia,Friend,triangle,584.0,e,mismatch,True
210h5uz713,81.0,Pink,adonia,Friend,cercle,565.0,e,mismatch,False
210h5uz713,82.0,Pink,adonia,Friend,triangle,475.0,e,mismatch,True
210h5uz713,83.0,Pink,adonia,Self,carré,571.0,i,match,True
210h5uz713,84.0,Pink,adonia,Stranger,triangle,642.0,e,mismatch,False
210h5uz713,85.0,Pink,adonia,Self,triangle,537.0,e,mismatch,True
210h5uz713,86.0,Pink,adonia,Self,triangle,407.0,e,mismatch,True
210h5uz713,87.0,Pink,adonia,Stranger,triangle,435.0,e,mismatch,False
210h5uz713,88.0,Pink,adonia,Friend,cercle,556.0,e,mismatch,False
210h5uz713,89.0,Pink,adonia,Friend,carré,727.0,e,mismatch,True
210h5uz713,90.0,Pink,adonia,Stranger,carré,785.0,e,mismatch,True
210h5uz713,91.0,Pink,adonia,Stranger,carré,674.0,e,mismatch,True
210h5uz713,92.0,Pink,adonia,Stranger,triangle,861.0,e,mismatch,False
210h5uz713,93.0,Pink,adonia,Self,triangle,940.0,e,mismatch,True
210h5uz713,94.0,Pink,adonia,Stranger,carré,679.0,e,mismatch,True
210h5uz713,95.0,Pink,adonia,Stranger,cercle,590.0,e,mismatch,True
210h5uz713,96.0,Pink,adonia,Self,carré,511.0,i,match,True
210h5uz713,97.0,Pink,adonia,Self,carré,534.0,i,match,True
210h5uz713,98.0,Pink,adonia,Friend,cercle,414.0,e,mismatch,False
210h5uz713,99.0,Pink,adonia,Self,triangle,492.0,e,mismatch,True
210h5uz713,100.0,Pink,adonia,Friend,triangle,447.0,e,mismatch,True
210h5uz713,101.0,Pink,adonia,Self,carré,506.0,i,match,True
210h5uz713,102.0,Pink,adonia,Friend,carré,440.0,i,match,False
210h5uz713,103.0,Pink,adonia,Self,carré,449.0,i,match,True
210h5uz713,104.0,Pink,adonia,Stranger,triangle,482.0,e,mismatch,False
210h5uz713,105.0,Pink,adonia,Friend,carré,552.0,e,mismatch,True
210h5uz713,106.0,Pink,adonia,Stranger,carré,723.0,e,mismatch,True
210h5uz713,107.0,Pink,adonia,Stranger,triangle,496.0,i,match,True
210h5uz713,108.0,Pink,adonia,Stranger,cercle,513.0,e,mismatch,True
210h5uz713,109.0,Pink,adonia,Friend,carré,533.0,e,mismatch,True
210h5uz713,110.0,Pink,adonia,Self,cercle,592.0,e,mismatch,True
210h5uz713,111.0,Pink,adonia,Self,triangle,607.0,e,mismatch,True
210h5uz713,112.0,Pink,adonia,Friend,carré,560.0,e,mismatch,True
210h5uz713,113.0,Pink,adonia,Stranger,cercle,484.0,e,mismatch,True
210h5uz713,114.0,Pink,adonia,Self,triangle,375.0,e,mismatch,True
210h5uz713,115.0,Pink,adonia,Friend,triangle,860.0,e,mismatch,True
210h5uz713,116.0,Pink,adonia,Self,carré,503.0,i,match,True
210h5uz713,117.0,Pink,adonia,Stranger,triangle,387.0,e,mismatch,False
210h5uz713,118.0,Pink,adonia,Self,carré,488.0,e,mismatch,False
210h5uz713,119.0,Pink,adonia,Friend,triangle,907.0,i,match,False
210h5uz713,120.0,Pink,adonia,Stranger,carré,622.0,e,mismatch,True
210h5uz713,121.0,Pink,adonia,Friend,carré,585.0,e,mismatch,True
210h5uz713,122.0,Pink,adonia,Stranger,triangle,640.0,e,mismatch,False
210h5uz713,123.0,Pink,adonia,Self,carré,615.0,i,match,True
210h5uz713,124.0,Pink,adonia,Self,cercle,557.0,e,mismatch,True
210h5uz713,125.0,Pink,adonia,Friend,triangle,819.0,e,mismatch,True
210h5uz713,126.0,Pink,adonia,Stranger,triangle,564.0,e,mismatch,False
210h5uz713,127.0,Pink,adonia,Friend,cercle,880.0,e,mismatch,False
210h5uz713,128.0,Pink,adonia,Stranger,triangle,853.0,i,match,True
210h5uz713,129.0,Pink,adonia,Friend,carré,561.0,e,mismatch,True
210h5uz713,130.0,Pink,adonia,Self,cercle,468.0,i,match,False
210h5uz713,131.0,Pink,adonia,Stranger,cercle,948.0,e,mismatch,True
210h5uz713,132.0,Pink,adonia,Friend,cercle,600.0,i,match,True
210h5uz713,133.0,Pink,adonia,Stranger,carré,717.0,e,mismatch,True
210h5uz713,134.0,Pink,adonia,Stranger,carré,599.0,e,mismatch,True
210h5uz713,135.0,Pink,adonia,Friend,carré,610.0,e,mismatch,True
210h5uz713,136.0,Pink,adonia,Friend,triangle,842.0,i,match,False
210h5uz713,137.0,Pink,adonia,Stranger,cercle,750.0,e,mismatch,True
210h5uz713,138.0,Pink,adonia,Stranger,carré,509.0,e,mismatch,True
210h5uz713,139.0,Pink,adonia,Stranger,cercle,582.0,e,mismatch,True
210h5uz713,140.0,Pink,adonia,Self,cercle,614.0,e,mismatch,True
210h5uz713,141.0,Pink,adonia,Self,cercle,512.0,e,mismatch,True
210h5uz713,142.0,Pink,adonia,Friend,triangle,620.0,e,mismatch,True
210h5uz713,143.0,Pink,adonia,Stranger,cercle,675.0,e,mismatch,True
210h5uz713,144.0,Pink,adonia,Stranger,carré,553.0,e,mismatch,True
210h5uz713,145.0,Pink,adonia,Self,triangle,490.0,e,mismatch,True
210h5uz713,146.0,Pink,adonia,Friend,carré,638.0,e,mismatch,True
210h5uz713,147.0,Pink,adonia,Self,cercle,627.0,e,mismatch,True
210h5uz713,148.0,Pink,adonia,Self,cercle,414.0,e,mismatch,True
210h5uz713,149.0,Pink,adonia,Stranger,cercle,317.0,e,mismatch,True
210h5uz713,150.0,Pink,adonia,Self,carré,671.0,i,match,True
210h5uz713,151.0,Pink,adonia,Friend,carré,547.0,e,mismatch,True
210h5uz713,152.0,Pink,adonia,Friend,cercle,621.0,e,mismatch,False
210h5uz713,153.0,Pink,adonia,Friend,cercle,540.0,i,match,True
210h5uz713,154.0,Pink,adonia,Stranger,carré,751.0,e,mismatch,True
210h5uz713,155.0,Pink,adonia,Stranger,triangle,749.0,i,match,True
210h5uz713,156.0,Pink,adonia,Stranger,triangle,587.0,i,match,True
210h5uz713,157.0,Pink,adonia,Self,triangle,557.0,e,mismatch,True
210h5uz713,158.0,Pink,adonia,Friend,cercle,601.0,i,match,True
210h5uz713,159.0,Pink,adonia,Stranger,cercle,566.0,i,match,False
210h5uz713,160.0,Pink,adonia,Friend,triangle,667.0,e,mismatch,True
210h5uz713,161.0,Pink,adonia,Stranger,carré,676.0,e,mismatch,True
210h5uz713,162.0,Pink,adonia,Stranger,triangle,789.0,e,mismatch,False
210h5uz713,163.0,Pink,adonia,Self,cercle,876.0,e,mismatch,True
210h5uz713,164.0,Pink,adonia,Friend,cercle,530.0,e,mismatch,False
210h5uz713,165.0,Pink,adonia,Stranger,triangle,766.0,i,match,True
210h5uz713,166.0,Pink,adonia,Self,triangle,472.0,e,mismatch,True
210h5uz713,167.0,Pink,adonia,Stranger,cercle,545.0,e,mismatch,True
210h5uz713,168.0,Pink,adonia,Friend,triangle,740.0,e,mismatch,True
210h5uz713,169.0,Pink,adonia,Self,triangle,595.0,e,mismatch,True
210h5uz713,170.0,Pink,adonia,Self,cercle,554.0,e,mismatch,True
210h5uz713,171.0,Pink,adonia,Stranger,cercle,648.0,e,mismatch,True
210h5uz713,172.0,Pink,adonia,Self,triangle,600.0,e,mismatch,True
210h5uz713,173.0,Pink,adonia,Stranger,carré,750.0,e,mismatch,True
210h5uz713,174.0,Pink,adonia,Friend,carré,637.0,e,mismatch,True
210h5uz713,175.0,Pink,adonia,Self,carré,498.0,i,match,True
210h5uz713,176.0,Pink,adonia,Stranger,cercle,1039.0,i,match,False
210h5uz713,177.0,Pink,adonia,Stranger,carré,609.0,e,mismatch,True
210h5uz713,178.0,Pink,adonia,Stranger,carré,436.0,e,mismatch,True
210h5uz713,179.0,Pink,adonia,Stranger,carré,410.0,e,mismatch,True
210h5uz713,180.0,Pink,adonia,Stranger,triangle,414.0,i,match,True
210h5uz713,181.0,Pink,adonia,Self,cercle,505.0,i,match,False
210h5uz713,182.0,Pink,adonia,Friend,cercle,784.0,i,match,True
210h5uz713,183.0,Pink,adonia,Stranger,cercle,571.0,e,mismatch,True
210h5uz713,184.0,Pink,adonia,Friend,triangle,730.0,e,mismatch,True
210h5uz713,185.0,Pink,adonia,Self,carré,606.0,i,match,True
210h5uz713,186.0,Pink,adonia,Friend,cercle,708.0,e,mismatch,False
210h5uz713,187.0,Pink,adonia,Friend,cercle,953.0,i,match,True
210h5uz713,188.0,Pink,adonia,Friend,carré,555.0,e,mismatch,True
210h5uz713,189.0,Pink,adonia,Self,carré,565.0,i,match,True
210h5uz713,190.0,Pink,adonia,Stranger,cercle,747.0,e,mismatch,True
210h5uz713,191.0,Pink,adonia,Stranger,triangle,683.0,i,match,True
210h5uz713,192.0,Pink,adonia,Stranger,triangle,370.0,i,match,True
210h5uz713,193.0,Pink,adonia,Self,triangle,528.0,e,mismatch,True
210h5uz713,194.0,Pink,adonia,Friend,carré,776.0,e,mismatch,True
210h5uz713,195.0,Pink,adonia,Self,triangle,605.0,e,mismatch,True
210h5uz713,196.0,Pink,adonia,Stranger,triangle,724.0,i,match,True
210h5uz713,197.0,Pink,adonia,Friend,cercle,643.0,i,match,True
210h5uz713,198.0,Pink,adonia,Self,carré,440.0,i,match,True
210h5uz713,199.0,Pink,adonia,Friend,cercle,551.0,i,match,True
210h5uz713,200.0,Pink,adonia,Friend,carré,526.0,e,mismatch,True
210h5uz713,201.0,Pink,adonia,Self,carré,604.0,i,match,True
210h5uz713,202.0,Pink,adonia,Friend,triangle,777.0,e,mismatch,True
210h5uz713,203.0,Pink,adonia,Friend,carré,650.0,e,mismatch,True
210h5uz713,204.0,Pink,adonia,Friend,triangle,660.0,e,mismatch,True
210h5uz713,205.0,Pink,adonia,Friend,carré,505.0,e,mismatch,True
210h5uz713,206.0,Pink,adonia,Stranger,triangle,611.0,i,match,True
210h5uz713,207.0,Pink,adonia,Self,carré,571.0,i,match,True
210h5uz713,208.0,Pink,adonia,Self,triangle,485.0,e,mismatch,True
210h5uz713,209.0,Pink,adonia,Stranger,cercle,776.0,e,mismatch,True
210h5uz713,210.0,Pink,adonia,Self,cercle,539.0,e,mismatch,True
210h5uz713,211.0,Pink,adonia,Friend,triangle,809.0,e,mismatch,True
210h5uz713,212.0,Pink,adonia,Self,triangle,601.0,e,mismatch,True
210h5uz713,213.0,Pink,adonia,Stranger,cercle,658.0,e,mismatch,True
210h5uz713,214.0,Pink,adonia,Self,cercle,523.0,e,mismatch,True
210h5uz713,215.0,Pink,adonia,Self,carré,419.0,i,match,True
210h5uz713,216.0,Pink,adonia,Stranger,triangle,812.0,i,match,True
210h5uz713,217.0,Pink,adonia,Friend,cercle,478.0,i,match,True
210h5uz713,218.0,Pink,adonia,Stranger,triangle,586.0,i,match,True
210h5uz713,219.0,Pink,adonia,Self,cercle,526.0,e,mismatch,True
210h5uz713,220.0,Pink,adonia,Friend,triangle,845.0,i,match,False
210h5uz713,221.0,Pink,adonia,Stranger,cercle,497.0,i,match,False
210h5uz713,222.0,Pink,adonia,Stranger,triangle,554.0,e,mismatch,False
210h5uz713,223.0,Pink,adonia,Self,carré,500.0,i,match,True
210h5uz713,224.0,Pink,adonia,Self,cercle,415.0,e,mismatch,True
210h5uz713,225.0,Pink,adonia,Friend,carré,657.0,e,mismatch,True
210h5uz713,226.0,Pink,adonia,Stranger,triangle,630.0,e,mismatch,False
210h5uz713,227.0,Pink,adonia,Friend,triangle,503.0,i,match,False
210h5uz713,228.0,Pink,adonia,Stranger,carré,651.0,e,mismatch,True
210h5uz713,229.0,Pink,adonia,Friend,triangle,791.0,e,mismatch,True
210h5uz713,230.0,Pink,adonia,Stranger,cercle,517.0,e,mismatch,True
210h5uz713,231.0,Pink,adonia,Friend,triangle,506.0,e,mismatch,True
210h5uz713,232.0,Pink,adonia,Self,cercle,561.0,e,mismatch,True
210h5uz713,233.0,Pink,adonia,Self,cercle,523.0,e,mismatch,True
210h5uz713,234.0,Pink,adonia,Self,carré,525.0,i,match,True
210h5uz713,235.0,Pink,adonia,Self,cercle,464.0,e,mismatch,True
210h5uz713,236.0,Pink,adonia,Stranger,cercle,426.0,e,mismatch,True
210h5uz713,237.0,Pink,adonia,Friend,cercle,431.0,i,match,True
210h5uz713,238.0,Pink,adonia,Stranger,cercle,475.0,e,mismatch,True
210h5uz713,239.0,Pink,adonia,Friend,carré,726.0,e,mismatch,True
210h5uz713,240.0,Pink,adonia,Stranger,cercle,650.0,e,mismatch,True
210h5uz713,241.0,Pink,adonia,Friend,cercle,529.0,i,match,True
210h5uz713,242.0,Pink,adonia,Friend,carré,403.0,i,match,False
210h5uz713,243.0,Pink,adonia,Self,cercle,422.0,e,mismatch,True
210h5uz713,244.0,Pink,adonia,Friend,carré,580.0,e,mismatch,True
210h5uz713,245.0,Pink,adonia,Friend,cercle,455.0,e,mismatch,False
210h5uz713,246.0,Pink,adonia,Self,triangle,533.0,e,mismatch,True
210h5uz713,247.0,Pink,adonia,Self,cercle,517.0,e,mismatch,True
210h5uz713,248.0,Pink,adonia,Stranger,triangle,716.0,i,match,True
210h5uz713,249.0,Pink,adonia,Self,carré,376.0,e,mismatch,False
210h5uz713,250.0,Pink,adonia,Stranger,carré,493.0,e,mismatch,True
210h5uz713,251.0,Pink,adonia,Friend,triangle,546.0,e,mismatch,True
210h5uz713,252.0,Pink,adonia,Stranger,triangle,610.0,i,match,True
210h5uz713,253.0,Pink,adonia,Self,triangle,428.0,e,mismatch,True
210h5uz713,254.0,Pink,adonia,Self,carré,525.0,i,match,True
210h5uz713,255.0,Pink,adonia,Self,triangle,458.0,e,mismatch,True
210h5uz713,256.0,Pink,adonia,Self,carré,438.0,i,match,True
210h5uz713,257.0,Pink,adonia,Stranger,cercle,675.0,e,mismatch,True
210h5uz713,258.0,Pink,adonia,Self,cercle,465.0,e,mismatch,True
210h5uz713,259.0,Pink,adonia,Stranger,cercle,504.0,e,mismatch,True
210h5uz713,260.0,Pink,adonia,Self,cercle,431.0,e,mismatch,True
210h5uz713,261.0,Pink,adonia,Self,cercle,1245.0,e,mismatch,True
210h5uz713,262.0,Pink,adonia,Stranger,cercle,402.0,e,mismatch,True
210h5uz713,263.0,Pink,adonia,Friend,carré,590.0,e,mismatch,True
210h5uz713,264.0,Pink,adonia,Friend,cercle,501.0,e,mismatch,False
210h5uz713,265.0,Pink,adonia,Self,cercle,499.0,e,mismatch,True
210h5uz713,266.0,Pink,adonia,Self,triangle,452.0,e,mismatch,True
210h5uz713,267.0,Pink,adonia,Stranger,cercle,437.0,e,mismatch,True
210h5uz713,268.0,Pink,adonia,Self,carré,417.0,e,mismatch,False
210h5uz713,269.0,Pink,adonia,Stranger,triangle,426.0,e,mismatch,False
210h5uz713,270.0,Pink,adonia,Friend,triangle,457.0,e,mismatch,True
210h5uz713,271.0,Pink,adonia,Stranger,carré,489.0,e,mismatch,True
210h5uz713,272.0,Pink,adonia,Stranger,carré,404.0,e,mismatch,True
210h5uz713,273.0,Pink,adonia,Self,triangle,498.0,e,mismatch,True
210h5uz713,274.0,Pink,adonia,Friend,cercle,530.0,e,mismatch,False
210h5uz713,275.0,Pink,adonia,Friend,triangle,338.0,e,mismatch,True
210h5uz713,276.0,Pink,adonia,Self,triangle,299.0,e,mismatch,True
210h5uz713,277.0,Pink,adonia,Stranger,cercle,490.0,e,mismatch,True
210h5uz713,278.0,Pink,adonia,Friend,triangle,592.0,e,mismatch,True
210h5uz713,279.0,Pink,adonia,Stranger,triangle,651.0,e,mismatch,False
210h5uz713,280.0,Pink,adonia,Friend,triangle,537.0,e,mismatch,True
210h5uz713,281.0,Pink,adonia,Self,carré,583.0,e,mismatch,False
210h5uz713,282.0,Pink,adonia,Self,carré,486.0,i,match,True
210h5uz713,283.0,Pink,adonia,Self,cercle,387.0,e,mismatch,True
210h5uz713,284.0,Pink,adonia,Stranger,carré,608.0,e,mismatch,True
210h5uz713,285.0,Pink,adonia,Friend,carré,580.0,e,mismatch,True
210h5uz713,286.0,Pink,adonia,Friend,cercle,490.0,i,match,True
210h5uz713,287.0,Pink,adonia,Friend,triangle,491.0,e,mismatch,True
210h5uz713,288.0,Pink,adonia,Friend,triangle,416.0,e,mismatch,True
210h5uz713,289.0,Pink,adonia,Stranger,carré,490.0,e,mismatch,True
210h5uz713,290.0,Pink,adonia,Friend,cercle,454.0,i,match,True
210h5uz713,291.0,Pink,adonia,Self,carré,580.0,i,match,True
210h5uz713,292.0,Pink,adonia,Friend,cercle,594.0,i,match,True
210h5uz713,293.0,Pink,adonia,Friend,cercle,448.0,i,match,True
210h5uz713,294.0,Pink,adonia,Friend,triangle,390.0,i,match,False
210h5uz713,295.0,Pink,adonia,Friend,cercle,453.0,i,match,True
210h5uz713,296.0,Pink,adonia,Stranger,cercle,517.0,e,mismatch,True
210h5uz713,297.0,Pink,adonia,Self,triangle,514.0,e,mismatch,True
210h5uz713,298.0,Pink,adonia,Stranger,triangle,535.0,e,mismatch,False
210h5uz713,299.0,Pink,adonia,Stranger,carré,612.0,i,match,False
210h5uz713,300.0,Pink,adonia,Self,triangle,712.0,e,mismatch,True
210h5uz713,301.0,Pink,adonia,Self,triangle,424.0,e,mismatch,True
210h5uz713,302.0,Pink,adonia,Friend,triangle,597.0,e,mismatch,True
210h5uz713,303.0,Pink,adonia,Friend,carré,591.0,i,match,False
210h5uz713,304.0,Pink,adonia,Stranger,triangle,471.0,e,mismatch,False
210h5uz713,305.0,Pink,adonia,Stranger,cercle,576.0,e,mismatch,True
210h5uz713,306.0,Pink,adonia,Self,cercle,566.0,e,mismatch,True
210h5uz713,307.0,Pink,adonia,Stranger,carré,449.0,e,mismatch,True
210h5uz713,308.0,Pink,adonia,Self,carré,773.0,i,match,True
210h5uz713,309.0,Pink,adonia,Friend,carré,419.0,e,mismatch,True
210h5uz713,310.0,Pink,adonia,Self,cercle,487.0,e,mismatch,True
210h5uz713,311.0,Pink,adonia,Self,carré,476.0,i,match,True
210h5uz713,312.0,Pink,adonia,Stranger,carré,457.0,e,mismatch,True
210h5uz713,313.0,Pink,adonia,Friend,carré,404.0,e,mismatch,True
210h5uz713,314.0,Pink,adonia,Friend,cercle,412.0,e,mismatch,False
210h5uz713,315.0,Pink,adonia,Stranger,carré,512.0,e,mismatch,True
210h5uz713,316.0,Pink,adonia,Stranger,cercle,432.0,e,mismatch,True
210h5uz713,317.0,Pink,adonia,Friend,carré,611.0,e,mismatch,True
210h5uz713,318.0,Pink,adonia,Stranger,triangle,699.0,e,mismatch,False
210h5uz713,319.0,Pink,adonia,Self,triangle,656.0,e,mismatch,True
210h5uz713,320.0,Pink,adonia,Stranger,triangle,527.0,i,match,True
210h5uz713,321.0,Pink,adonia,Friend,cercle,571.0,e,mismatch,False
210h5uz713,322.0,Pink,adonia,Self,cercle,769.0,e,mismatch,True
210h5uz713,323.0,Pink,adonia,Stranger,triangle,852.0,i,match,True
210h5uz713,324.0,Pink,adonia,Self,triangle,508.0,e,mismatch,True
3vosqpph84,1.0,Sting,ray,Friend,triangle,2705.0,e,match,False
3vosqpph84,2.0,Sting,ray,Stranger,circle,2186.0,i,mismatch,True
3vosqpph84,3.0,Sting,ray,Stranger,circle,866.0,i,mismatch,True
3vosqpph84,4.0,Sting,ray,Stranger,circle,614.0,i,mismatch,True
3vosqpph84,5.0,Sting,ray,Stranger,square,844.0,i,mismatch,True
3vosqpph84,6.0,Sting,ray,Stranger,square,844.0,i,mismatch,True
3vosqpph84,7.0,Sting,ray,Self,circle,735.0,e,match,True
3vosqpph84,8.0,Sting,ray,Stranger,circle,814.0,i,mismatch,True
3vosqpph84,9.0,Sting,ray,Self,circle,570.0,e,match,True
3vosqpph84,10.0,Sting,ray,Friend,circle,894.0,i,mismatch,True
3vosqpph84,11.0,Sting,ray,Friend,square,1052.0,e,match,True
3vosqpph84,12.0,Sting,ray,Stranger,square,952.0,i,mismatch,True
3vosqpph84,13.0,Sting,ray,Friend,triangle,954.0,i,mismatch,True
3vosqpph84,14.0,Sting,ray,Friend,triangle,781.0,i,mismatch,True
3vosqpph84,15.0,Sting,ray,Stranger,triangle,753.0,i,mismatch,False
3vosqpph84,16.0,Sting,ray,Self,triangle,779.0,i,mismatch,True
3vosqpph84,17.0,Sting,ray,Stranger,square,781.0,i,mismatch,True
3vosqpph84,18.0,Sting,ray,Self,triangle,611.0,i,mismatch,True
3vosqpph84,19.0,Sting,ray,Friend,square,969.0,i,mismatch,False
3vosqpph84,20.0,Sting,ray,Friend,triangle,804.0,i,mismatch,True
3vosqpph84,21.0,Sting,ray,Friend,square,745.0,e,match,True
3vosqpph84,22.0,Sting,ray,Self,circle,728.0,e,match,True
3vosqpph84,23.0,Sting,ray,Self,triangle,900.0,i,mismatch,True
3vosqpph84,24.0,Sting,ray,Friend,triangle,1433.0,i,mismatch,True
3vosqpph84,25.0,Sting,ray,Stranger,square,835.0,i,mismatch,True
3vosqpph84,26.0,Sting,ray,Friend,triangle,941.0,i,mismatch,True
3vosqpph84,27.0,Sting,ray,Friend,square,836.0,e,match,True
3vosqpph84,28.0,Sting,ray,Stranger,square,703.0,i,mismatch,True
3vosqpph84,29.0,Sting,ray,Self,square,930.0,i,mismatch,True
3vosqpph84,30.0,Sting,ray,Self,triangle,637.0,i,mismatch,True
3vosqpph84,31.0,Sting,ray,Stranger,triangle,864.0,i,mismatch,False
3vosqpph84,32.0,Sting,ray,Stranger,circle,885.0,i,mismatch,True
3vosqpph84,33.0,Sting,ray,Friend,triangle,1378.0,i,mismatch,True
3vosqpph84,34.0,Sting,ray,Stranger,square,879.0,i,mismatch,True
3vosqpph84,35.0,Sting,ray,Self,square,759.0,i,mismatch,True
3vosqpph84,36.0,Sting,ray,Friend,circle,687.0,i,mismatch,True
3vosqpph84,37.0,Sting,ray,Self,triangle,879.0,i,mismatch,True
3vosqpph84,38.0,Sting,ray,Self,circle,487.0,e,match,True
3vosqpph84,39.0,Sting,ray,Self,circle,626.0,e,match,True
3vosqpph84,40.0,Sting,ray,Self,square,881.0,i,mismatch,True
3vosqpph84,41.0,Sting,ray,Self,square,1026.0,i,mismatch,True
3vosqpph84,42.0,Sting,ray,Stranger,square,597.0,i,mismatch,True
3vosqpph84,43.0,Sting,ray,Stranger,square,559.0,i,mismatch,True
3vosqpph84,44.0,Sting,ray,Self,triangle,701.0,i,mismatch,True
3vosqpph84,45.0,Sting,ray,Friend,triangle,956.0,e,match,False
3vosqpph84,46.0,Sting,ray,Friend,square,509.0,e,match,True
3vosqpph84,47.0,Sting,ray,Stranger,triangle,602.0,i,mismatch,False
3vosqpph84,48.0,Sting,ray,Stranger,triangle,730.0,e,match,True
3vosqpph84,49.0,Sting,ray,Friend,triangle,622.0,i,mismatch,True
3vosqpph84,50.0,Sting,ray,Self,triangle,805.0,i,mismatch,True
3vosqpph84,51.0,Sting,ray,Self,square,421.0,e,match,False
3vosqpph84,52.0,Sting,ray,Friend,triangle,737.0,i,mismatch,True
3vosqpph84,53.0,Sting,ray,Stranger,triangle,887.0,i,mismatch,False
3vosqpph84,54.0,Sting,ray,Stranger,square,865.0,i,mismatch,True
3vosqpph84,55.0,Sting,ray,Stranger,square,795.0,i,mismatch,True
3vosqpph84,56.0,Sting,ray,Stranger,square,779.0,i,mismatch,True
3vosqpph84,57.0,Sting,ray,Self,circle,617.0,e,match,True
3vosqpph84,58.0,Sting,ray,Stranger,circle,969.0,i,mismatch,True
3vosqpph84,59.0,Sting,ray,Self,square,684.0,i,mismatch,True
3vosqpph84,60.0,Sting,ray,Self,circle,719.0,e,match,True
3vosqpph84,61.0,Sting,ray,Friend,triangle,966.0,i,mismatch,True
3vosqpph84,62.0,Sting,ray,Self,triangle,727.0,i,mismatch,True
3vosqpph84,63.0,Sting,ray,Friend,circle,754.0,i,mismatch,True
3vosqpph84,64.0,Sting,ray,Self,circle,768.0,e,match,True
3vosqpph84,65.0,Sting,ray,Self,triangle,847.0,i,mismatch,True
3vosqpph84,66.0,Sting,ray,Self,triangle,721.0,e,match,False
3vosqpph84,67.0,Sting,ray,Self,triangle,711.0,i,mismatch,True
3vosqpph84,68.0,Sting,ray,Stranger,triangle,587.0,i,mismatch,False
3vosqpph84,69.0,Sting,ray,Stranger,triangle,845.0,e,match,True
3vosqpph84,70.0,Sting,ray,Self,triangle,646.0,i,mismatch,True
3vosqpph84,71.0,Sting,ray,Stranger,circle,1871.0,i,mismatch,True
3vosqpph84,72.0,Sting,ray,Self,square,996.0,i,mismatch,True
3vosqpph84,73.0,Sting,ray,Self,triangle,1089.0,i,mismatch,True
3vosqpph84,74.0,Sting,ray,Friend,square,1235.0,e,match,True
3vosqpph84,75.0,Sting,ray,Self,triangle,1012.0,i,mismatch,True
3vosqpph84,76.0,Sting,ray,Self,square,588.0,i,mismatch,True
3vosqpph84,77.0,Sting,ray,Friend,circle,656.0,i,mismatch,True
3vosqpph84,78.0,Sting,ray,Self,triangle,1242.0,i,mismatch,True
3vosqpph84,79.0,Sting,ray,Self,triangle,721.0,i,mismatch,True
3vosqpph84,80.0,Sting,ray,Self,circle,575.0,e,match,True
3vosqpph84,81.0,Sting,ray,Stranger,circle,535.0,i,mismatch,True
3vosqpph84,82.0,Sting,ray,Stranger,circle,351.0,i,mismatch,True
3vosqpph84,83.0,Sting,ray,Self,circle,635.0,e,match,True
3vosqpph84,84.0,Sting,ray,Friend,triangle,1302.0,e,match,False
3vosqpph84,85.0,Sting,ray,Stranger,triangle,713.0,e,match,True
3vosqpph84,86.0,Sting,ray,Friend,circle,833.0,e,match,False
3vosqpph84,87.0,Sting,ray,Friend,circle,716.0,i,mismatch,True
3vosqpph84,88.0,Sting,ray,Friend,square,595.0,e,match,True
3vosqpph84,89.0,Sting,ray,Friend,circle,577.0,i,mismatch,True
3vosqpph84,90.0,Sting,ray,Friend,circle,765.0,i,mismatch,True
3vosqpph84,91.0,Sting,ray,Stranger,square,766.0,i,mismatch,True
3vosqpph84,92.0,Sting,ray,Stranger,circle,1033.0,i,mismatch,True
3vosqpph84,93.0,Sting,ray,Self,triangle,899.0,i,mismatch,True
3vosqpph84,94.0,Sting,ray,Friend,square,783.0,e,match,True
3vosqpph84,95.0,Sting,ray,Stranger,circle,1079.0,i,mismatch,True
3vosqpph84,96.0,Sting,ray,Friend,square,640.0,e,match,True
3vosqpph84,97.0,Sting,ray,Self,circle,684.0,e,match,True
3vosqpph84,98.0,Sting,ray,Stranger,triangle,837.0,e,match,True
3vosqpph84,99.0,Sting,ray,Self,circle,822.0,e,match,True
3vosqpph84,100.0,Sting,ray,Stranger,triangle,1058.0,e,match,True
3vosqpph84,101.0,Sting,ray,Self,triangle,565.0,i,mismatch,True
3vosqpph84,102.0,Sting,ray,Friend,square,541.0,e,match,True
3vosqpph84,103.0,Sting,ray,Stranger,circle,689.0,i,mismatch,True
3vosqpph84,104.0,Sting,ray,Stranger,circle,581.0,i,mismatch,True
3vosqpph84,105.0,Sting,ray,Self,circle,518.0,e,match,True
3vosqpph84,106.0,Sting,ray,Friend,circle,539.0,i,mismatch,True
3vosqpph84,107.0,Sting,ray,Self,triangle,1059.0,i,mismatch,True
3vosqpph84,108.0,Sting,ray,Stranger,circle,810.0,i,mismatch,True
3vosqpph84,109.0,Sting,ray,Friend,circle,504.0,i,mismatch,True
3vosqpph84,110.0,Sting,ray,Stranger,square,1085.0,i,mismatch,True
3vosqpph84,111.0,Sting,ray,Stranger,triangle,762.0,i,mismatch,False
3vosqpph84,112.0,Sting,ray,Stranger,square,750.0,i,mismatch,True
3vosqpph84,113.0,Sting,ray,Self,triangle,654.0,i,mismatch,True
3vosqpph84,114.0,Sting,ray,Self,square,830.0,i,mismatch,True
3vosqpph84,115.0,Sting,ray,Stranger,triangle,1052.0,i,mismatch,False
3vosqpph84,116.0,Sting,ray,Friend,circle,686.0,i,mismatch,True
3vosqpph84,117.0,Sting,ray,Stranger,square,1056.0,i,mismatch,True
3vosqpph84,118.0,Sting,ray,Friend,circle,607.0,i,mismatch,True
3vosqpph84,119.0,Sting,ray,Friend,square,695.0,e,match,True
3vosqpph84,120.0,Sting,ray,Stranger,circle,640.0,i,mismatch,True
3vosqpph84,121.0,Sting,ray,Stranger,triangle,849.0,e,match,True
3vosqpph84,122.0,Sting,ray,Self,square,742.0,i,mismatch,True
3vosqpph84,123.0,Sting,ray,Stranger,triangle,882.0,e,match,True
3vosqpph84,124.0,Sting,ray,Stranger,triangle,566.0,e,match,True
3vosqpph84,125.0,Sting,ray,Self,circle,635.0,e,match,True
3vosqpph84,126.0,Sting,ray,Stranger,triangle,772.0,e,match,True
3vosqpph84,127.0,Sting,ray,Self,square,596.0,i,mismatch,True
3vosqpph84,128.0,Sting,ray,Stranger,square,666.0,i,mismatch,True
3vosqpph84,129.0,Sting,ray,Friend,triangle,763.0,i,mismatch,True
3vosqpph84,130.0,Sting,ray,Self,circle,1214.0,e,match,True
3vosqpph84,131.0,Sting,ray,Self,square,648.0,i,mismatch,True
3vosqpph84,132.0,Sting,ray,Self,triangle,682.0,i,mismatch,True
3vosqpph84,133.0,Sting,ray,Stranger,circle,831.0,i,mismatch,True
3vosqpph84,134.0,Sting,ray,Friend,triangle,775.0,e,match,False
3vosqpph84,135.0,Sting,ray,Friend,circle,773.0,i,mismatch,True
3vosqpph84,136.0,Sting,ray,Self,circle,717.0,e,match,True
3vosqpph84,137.0,Sting,ray,Self,circle,473.0,e,match,True
3vosqpph84,138.0,Sting,ray,Friend,triangle,891.0,i,mismatch,True
3vosqpph84,139.0,Sting,ray,Friend,triangle,660.0,i,mismatch,True
3vosqpph84,140.0,Sting,ray,Stranger,circle,824.0,i,mismatch,True
3vosqpph84,141.0,Sting,ray,Friend,square,625.0,e,match,True
3vosqpph84,142.0,Sting,ray,Friend,circle,1074.0,i,mismatch,True
3vosqpph84,143.0,Sting,ray,Self,circle,2363.0,e,match,True
3vosqpph84,144.0,Sting,ray,Friend,circle,1798.0,e,match,False
3vosqpph84,145.0,Sting,ray,Stranger,square,1970.0,i,mismatch,True
3vosqpph84,146.0,Sting,ray,Stranger,triangle,804.0,e,match,True
3vosqpph84,147.0,Sting,ray,Self,square,758.0,i,mismatch,True
3vosqpph84,148.0,Sting,ray,Self,circle,710.0,e,match,True
3vosqpph84,149.0,Sting,ray,Friend,circle,581.0,e,match,False
3vosqpph84,150.0,Sting,ray,Stranger,triangle,1068.0,i,mismatch,False
3vosqpph84,151.0,Sting,ray,Stranger,triangle,834.0,i,mismatch,False
3vosqpph84,152.0,Sting,ray,Self,triangle,731.0,i,mismatch,True
3vosqpph84,153.0,Sting,ray,Friend,triangle,738.0,i,mismatch,True
3vosqpph84,154.0,Sting,ray,Self,triangle,705.0,i,mismatch,True
3vosqpph84,155.0,Sting,ray,Friend,triangle,764.0,i,mismatch,True
3vosqpph84,156.0,Sting,ray,Friend,circle,649.0,i,mismatch,True
3vosqpph84,157.0,Sting,ray,Friend,square,719.0,e,match,True
3vosqpph84,158.0,Sting,ray,Friend,square,483.0,e,match,True
3vosqpph84,159.0,Sting,ray,Friend,triangle,568.0,i,mismatch,True
3vosqpph84,160.0,Sting,ray,Stranger,circle,905.0,i,mismatch,True
3vosqpph84,161.0,Sting,ray,Stranger,square,1056.0,i,mismatch,True
3vosqpph84,162.0,Sting,ray,Self,circle,512.0,e,match,True
3vosqpph84,163.0,Sting,ray,Self,square,955.0,i,mismatch,True
3vosqpph84,164.0,Sting,ray,Stranger,square,650.0,i,mismatch,True
3vosqpph84,165.0,Sting,ray,Stranger,triangle,957.0,e,match,True
3vosqpph84,166.0,Sting,ray,Friend,square,782.0,e,match,True
3vosqpph84,167.0,Sting,ray,Self,circle,661.0,e,match,True
3vosqpph84,168.0,Sting,ray,Self,circle,592.0,e,match,True
3vosqpph84,169.0,Sting,ray,Friend,square,713.0,e,match,True
3vosqpph84,170.0,Sting,ray,Friend,square,585.0,e,match,True
3vosqpph84,171.0,Sting,ray,Self,circle,594.0,e,match,True
3vosqpph84,172.0,Sting,ray,Friend,triangle,697.0,i,mismatch,True
3vosqpph84,173.0,Sting,ray,Self,square,781.0,i,mismatch,True
3vosqpph84,174.0,Sting,ray,Stranger,square,891.0,i,mismatch,True
3vosqpph84,175.0,Sting,ray,Stranger,circle,833.0,i,mismatch,True
3vosqpph84,176.0,Sting,ray,Friend,square,698.0,e,match,True
3vosqpph84,177.0,Sting,ray,Stranger,square,660.0,i,mismatch,True
3vosqpph84,178.0,Sting,ray,Stranger,triangle,1060.0,e,match,True
3vosqpph84,179.0,Sting,ray,Self,triangle,602.0,i,mismatch,True
3vosqpph84,180.0,Sting,ray,Friend,square,861.0,e,match,True
3vosqpph84,181.0,Sting,ray,Stranger,triangle,943.0,e,match,True
3vosqpph84,182.0,Sting,ray,Stranger,triangle,569.0,e,match,True
3vosqpph84,183.0,Sting,ray,Self,circle,701.0,e,match,True
3vosqpph84,184.0,Sting,ray,Stranger,circle,630.0,i,mismatch,True
3vosqpph84,185.0,Sting,ray,Friend,triangle,905.0,i,mismatch,True
3vosqpph84,186.0,Sting,ray,Self,circle,829.0,e,match,True
3vosqpph84,187.0,Sting,ray,Self,triangle,627.0,i,mismatch,True
3vosqpph84,188.0,Sting,ray,Self,triangle,723.0,e,match,False
3vosqpph84,189.0,Sting,ray,Self,triangle,519.0,i,mismatch,True
3vosqpph84,190.0,Sting,ray,Self,square,648.0,i,mismatch,True
3vosqpph84,191.0,Sting,ray,Friend,circle,653.0,i,mismatch,True
3vosqpph84,192.0,Sting,ray,Friend,circle,721.0,i,mismatch,True
3vosqpph84,193.0,Sting,ray,Stranger,square,1020.0,i,mismatch,True
3vosqpph84,194.0,Sting,ray,Stranger,triangle,1102.0,i,mismatch,False
3vosqpph84,195.0,Sting,ray,Friend,circle,821.0,i,mismatch,True
3vosqpph84,196.0,Sting,ray,Self,triangle,617.0,i,mismatch,True
3vosqpph84,197.0,Sting,ray,Friend,circle,680.0,i,mismatch,True
3vosqpph84,198.0,Sting,ray,Self,circle,780.0,e,match,True
3vosqpph84,199.0,Sting,ray,Self,square,731.0,i,mismatch,True
3vosqpph84,200.0,Sting,ray,Self,square,739.0,i,mismatch,True
3vosqpph84,201.0,Sting,ray,Friend,triangle,522.0,i,mismatch,True
3vosqpph84,202.0,Sting,ray,Self,square,751.0,i,mismatch,True
3vosqpph84,203.0,Sting,ray,Stranger,circle,624.0,i,mismatch,True
3vosqpph84,204.0,Sting,ray,Self,circle,897.0,e,match,True
3vosqpph84,205.0,Sting,ray,Stranger,triangle,913.0,e,match,True
3vosqpph84,206.0,Sting,ray,Friend,square,459.0,e,match,True
3vosqpph84,207.0,Sting,ray,Self,triangle,642.0,i,mismatch,True
3vosqpph84,208.0,Sting,ray,Stranger,circle,756.0,i,mismatch,True
3vosqpph84,209.0,Sting,ray,Friend,circle,917.0,i,mismatch,True
3vosqpph84,210.0,Sting,ray,Self,circle,701.0,e,match,True
3vosqpph84,211.0,Sting,ray,Self,square,752.0,i,mismatch,True
3vosqpph84,212.0,Sting,ray,Friend,circle,822.0,i,mismatch,True
3vosqpph84,213.0,Sting,ray,Self,circle,674.0,e,match,True
3vosqpph84,214.0,Sting,ray,Self,square,654.0,i,mismatch,True
3vosqpph84,215.0,Sting,ray,Stranger,square,1040.0,i,mismatch,True
3vosqpph84,216.0,Sting,ray,Stranger,circle,761.0,i,mismatch,True
3vosqpph84,217.0,Sting,ray,Self,square,698.0,i,mismatch,True
3vosqpph84,218.0,Sting,ray,Self,square,645.0,i,mismatch,True
3vosqpph84,219.0,Sting,ray,Friend,triangle,506.0,i,mismatch,True
3vosqpph84,220.0,Sting,ray,Stranger,circle,778.0,i,mismatch,True
3vosqpph84,221.0,Sting,ray,Stranger,square,794.0,i,mismatch,True
3vosqpph84,222.0,Sting,ray,Friend,square,695.0,e,match,True
3vosqpph84,223.0,Sting,ray,Self,square,1034.0,i,mismatch,True
3vosqpph84,224.0,Sting,ray,Stranger,triangle,854.0,e,match,True
3vosqpph84,225.0,Sting,ray,Friend,triangle,653.0,i,mismatch,True
3vosqpph84,226.0,Sting,ray,Self,square,640.0,i,mismatch,True
3vosqpph84,227.0,Sting,ray,Self,circle,542.0,e,match,True
3vosqpph84,228.0,Sting,ray,Friend,circle,559.0,i,mismatch,True
3vosqpph84,229.0,Sting,ray,Stranger,triangle,698.0,e,match,True
3vosqpph84,230.0,Sting,ray,Self,triangle,713.0,i,mismatch,True
3vosqpph84,231.0,Sting,ray,Friend,triangle,628.0,i,mismatch,True
3vosqpph84,232.0,Sting,ray,Self,square,775.0,i,mismatch,True
3vosqpph84,233.0,Sting,ray,Self,circle,546.0,e,match,True
3vosqpph84,234.0,Sting,ray,Friend,triangle,814.0,i,mismatch,True
3vosqpph84,235.0,Sting,ray,Friend,square,785.0,e,match,True
3vosqpph84,236.0,Sting,ray,Friend,circle,675.0,i,mismatch,True
3vosqpph84,237.0,Sting,ray,Friend,triangle,791.0,i,mismatch,True
3vosqpph84,238.0,Sting,ray,Stranger,circle,716.0,i,mismatch,True
3vosqpph84,239.0,Sting,ray,Stranger,circle,608.0,i,mismatch,True
3vosqpph84,240.0,Sting,ray,Friend,square,613.0,e,match,True
3vosqpph84,241.0,Sting,ray,Stranger,square,638.0,i,mismatch,True
3vosqpph84,242.0,Sting,ray,Friend,triangle,715.0,i,mismatch,True
3vosqpph84,243.0,Sting,ray,Friend,square,792.0,e,match,True
3vosqpph84,244.0,Sting,ray,Stranger,circle,621.0,i,mismatch,True
3vosqpph84,245.0,Sting,ray,Friend,square,683.0,e,match,True
3vosqpph84,246.0,Sting,ray,Stranger,circle,699.0,i,mismatch,True
3vosqpph84,247.0,Sting,ray,Friend,triangle,828.0,i,mismatch,True
3vosqpph84,248.0,Sting,ray,Self,circle,759.0,e,match,True
3vosqpph84,249.0,Sting,ray,Friend,square,558.0,i,mismatch,False
3vosqpph84,250.0,Sting,ray,Friend,circle,582.0,i,mismatch,True
3vosqpph84,251.0,Sting,ray,Stranger,triangle,567.0,e,match,True
3vosqpph84,252.0,Sting,ray,Stranger,square,754.0,i,mismatch,True
3vosqpph84,253.0,Sting,ray,Self,square,742.0,i,mismatch,True
3vosqpph84,254.0,Sting,ray,Stranger,triangle,776.0,e,match,True
3vosqpph84,255.0,Sting,ray,Friend,square,512.0,i,mismatch,False
3vosqpph84,256.0,Sting,ray,Friend,square,499.0,e,match,True
3vosqpph84,257.0,Sting,ray,Self,circle,504.0,e,match,True
3vosqpph84,258.0,Sting,ray,Stranger,square,577.0,i,mismatch,True
3vosqpph84,259.0,Sting,ray,Self,square,662.0,i,mismatch,True
3vosqpph84,260.0,Sting,ray,Self,circle,497.0,e,match,True
3vosqpph84,261.0,Sting,ray,Friend,square,500.0,i,mismatch,False
3vosqpph84,262.0,Sting,ray,Stranger,square,616.0,i,mismatch,True
3vosqpph84,263.0,Sting,ray,Stranger,square,636.0,i,mismatch,True
3vosqpph84,264.0,Sting,ray,Stranger,triangle,961.0,e,match,True
3vosqpph84,265.0,Sting,ray,Self,square,629.0,i,mismatch,True
3vosqpph84,266.0,Sting,ray,Self,triangle,864.0,i,mismatch,True
3vosqpph84,267.0,Sting,ray,Self,square,514.0,i,mismatch,True
3vosqpph84,268.0,Sting,ray,Stranger,circle,563.0,i,mismatch,True
3vosqpph84,269.0,Sting,ray,Self,triangle,687.0,i,mismatch,True
3vosqpph84,270.0,Sting,ray,Stranger,square,880.0,i,mismatch,True
3vosqpph84,271.0,Sting,ray,Stranger,circle,693.0,i,mismatch,True
3vosqpph84,272.0,Sting,ray,Stranger,square,501.0,i,mismatch,True
3vosqpph84,273.0,Sting,ray,Stranger,triangle,409.0,e,match,True
3vosqpph84,274.0,Sting,ray,Stranger,triangle,641.0,e,match,True
3vosqpph84,275.0,Sting,ray,Friend,square,771.0,e,match,True
3vosqpph84,276.0,Sting,ray,Friend,circle,1621.0,i,mismatch,True
3vosqpph84,277.0,Sting,ray,Friend,square,1014.0,e,match,True
3vosqpph84,278.0,Sting,ray,Friend,circle,1338.0,i,mismatch,True
3vosqpph84,279.0,Sting,ray,Friend,circle,1618.0,i,mismatch,True
3vosqpph84,280.0,Sting,ray,Friend,circle,952.0,i,mismatch,True
3vosqpph84,281.0,Sting,ray,Stranger,square,1091.0,i,mismatch,True
3vosqpph84,282.0,Sting,ray,Stranger,square,851.0,i,mismatch,True
3vosqpph84,283.0,Sting,ray,Friend,triangle,623.0,e,match,False
3vosqpph84,284.0,Sting,ray,Friend,circle,727.0,i,mismatch,True
3vosqpph84,285.0,Sting,ray,Friend,triangle,621.0,e,match,False
3vosqpph84,286.0,Sting,ray,Friend,square,590.0,e,match,True
3vosqpph84,287.0,Sting,ray,Friend,circle,630.0,i,mismatch,True
3vosqpph84,288.0,Sting,ray,Stranger,circle,746.0,i,mismatch,True
3vosqpph84,289.0,Sting,ray,Self,circle,547.0,e,match,True
3vosqpph84,290.0,Sting,ray,Self,square,707.0,i,mismatch,True
3vosqpph84,291.0,Sting,ray,Friend,square,1001.0,e,match,True
3vosqpph84,292.0,Sting,ray,Stranger,circle,890.0,i,mismatch,True
3vosqpph84,293.0,Sting,ray,Friend,triangle,700.0,e,match,False
3vosqpph84,294.0,Sting,ray,Stranger,triangle,884.0,e,match,True
3vosqpph84,295.0,Sting,ray,Stranger,circle,656.0,i,mismatch,True
3vosqpph84,296.0,Sting,ray,Friend,circle,599.0,i,mismatch,True
3vosqpph84,297.0,Sting,ray,Self,square,703.0,i,mismatch,True
3vosqpph84,298.0,Sting,ray,Friend,square,710.0,e,match,True
3vosqpph84,299.0,Sting,ray,Self,triangle,684.0,i,mismatch,True
3vosqpph84,300.0,Sting,ray,Friend,square,769.0,e,match,True
3vosqpph84,301.0,Sting,ray,Stranger,circle,599.0,i,mismatch,True
3vosqpph84,302.0,Sting,ray,Friend,circle,757.0,i,mismatch,True
3vosqpph84,303.0,Sting,ray,Self,circle,916.0,e,match,True
3vosqpph84,304.0,Sting,ray,Self,square,969.0,i,mismatch,True
3vosqpph84,305.0,Sting,ray,Self,square,871.0,i,mismatch,True
3vosqpph84,306.0,Sting,ray,Stranger,circle,700.0,i,mismatch,True
3vosqpph84,307.0,Sting,ray,Friend,square,674.0,e,match,True
3vosqpph84,308.0,Sting,ray,Stranger,triangle,688.0,e,match,True
3vosqpph84,309.0,Sting,ray,Friend,circle,630.0,i,mismatch,True
3vosqpph84,310.0,Sting,ray,Stranger,square,679.0,i,mismatch,True
3vosqpph84,311.0,Sting,ray,Stranger,circle,522.0,i,mismatch,True
3vosqpph84,312.0,Sting,ray,Friend,triangle,650.0,e,match,False
3vosqpph84,313.0,Sting,ray,Friend,triangle,526.0,i,mismatch,True
3vosqpph84,314.0,Sting,ray,Stranger,triangle,807.0,e,match,True
3vosqpph84,315.0,Sting,ray,Friend,triangle,617.0,i,mismatch,True
3vosqpph84,316.0,Sting,ray,Stranger,square,786.0,i,mismatch,True
3vosqpph84,317.0,Sting,ray,Self,triangle,610.0,i,mismatch,True
3vosqpph84,318.0,Sting,ray,Stranger,triangle,479.0,i,mismatch,False
3vosqpph84,319.0,Sting,ray,Self,square,688.0,i,mismatch,True
3vosqpph84,320.0,Sting,ray,Self,triangle,570.0,i,mismatch,True
3vosqpph84,321.0,Sting,ray,Self,triangle,532.0,i,mismatch,True
3vosqpph84,322.0,Sting,ray,Friend,triangle,656.0,i,mismatch,True
3vosqpph84,323.0,Sting,ray,Friend,circle,617.0,i,mismatch,True
3vosqpph84,324.0,Sting,ray,Self,square,628.0,i,mismatch,True
fqy71bajv6,1.0,Madonna,Alona,Stranger,triangle,,,,False
fqy71bajv6,2.0,Madonna,Alona,Self,circle,2222.0,i,match,True
fqy71bajv6,3.0,Madonna,Alona,Self,triangle,1384.0,e,mismatch,True
fqy71bajv6,4.0,Madonna,Alona,Stranger,circle,1355.0,i,match,False
fqy71bajv6,5.0,Madonna,Alona,Friend,square,1234.0,i,match,True
fqy71bajv6,6.0,Madonna,Alona,Friend,square,1113.0,e,mismatch,False
fqy71bajv6,7.0,Madonna,Alona,Stranger,circle,896.0,i,match,False
fqy71bajv6,8.0,Madonna,Alona,Self,circle,1530.0,i,match,True
fqy71bajv6,9.0,Madonna,Alona,Friend,square,1905.0,i,match,True
fqy71bajv6,10.0,Madonna,Alona,Friend,triangle,1270.0,e,mismatch,True
fqy71bajv6,11.0,Madonna,Alona,Self,triangle,1243.0,e,mismatch,True
fqy71bajv6,12.0,Madonna,Alona,Friend,square,1537.0,e,mismatch,False
fqy71bajv6,13.0,Madonna,Alona,Stranger,triangle,923.0,i,match,True
fqy71bajv6,14.0,Madonna,Alona,Stranger,square,911.0,e,mismatch,True
fqy71bajv6,15.0,Madonna,Alona,Friend,square,939.0,i,match,True
fqy71bajv6,16.0,Madonna,Alona,Friend,circle,968.0,e,mismatch,True
fqy71bajv6,17.0,Madonna,Alona,Self,circle,889.0,i,match,True
fqy71bajv6,18.0,Madonna,Alona,Stranger,triangle,850.0,i,match,True
fqy71bajv6,19.0,Madonna,Alona,Self,triangle,651.0,e,mismatch,True
fqy71bajv6,20.0,Madonna,Alona,Self,square,856.0,i,match,False
fqy71bajv6,21.0,Madonna,Alona,Friend,circle,847.0,e,mismatch,True
fqy71bajv6,22.0,Madonna,Alona,Self,triangle,1137.0,i,match,False
fqy71bajv6,23.0,Madonna,Alona,Stranger,triangle,997.0,i,match,True
fqy71bajv6,24.0,Madonna,Alona,Self,circle,844.0,i,match,True
fqy71bajv6,25.0,Madonna,Alona,Self,circle,885.0,i,match,True
fqy71bajv6,26.0,Madonna,Alona,Self,square,666.0,e,mismatch,True
fqy71bajv6,27.0,Madonna,Alona,Friend,triangle,905.0,e,mismatch,True
fqy71bajv6,28.0,Madonna,Alona,Stranger,square,550.0,i,match,False
fqy71bajv6,29.0,Madonna,Alona,Friend,triangle,1059.0,e,mismatch,True
fqy71bajv6,30.0,Madonna,Alona,Friend,circle,741.0,i,match,False
fqy71bajv6,31.0,Madonna,Alona,Self,square,541.0,e,mismatch,True
fqy71bajv6,32.0,Madonna,Alona,Friend,triangle,784.0,e,mismatch,True
fqy71bajv6,33.0,Madonna,Alona,Self,circle,849.0,i,match,True
fqy71bajv6,34.0,Madonna,Alona,Stranger,triangle,685.0,e,mismatch,False
fqy71bajv6,35.0,Madonna,Alona,Self,triangle,915.0,e,mismatch,True
fqy71bajv6,36.0,Madonna,Alona,Stranger,circle,588.0,i,match,False
fqy71bajv6,37.0,Madonna,Alona,Stranger,square,587.0,e,mismatch,True
fqy71bajv6,38.0,Madonna,Alona,Friend,circle,1026.0,i,match,False
fqy71bajv6,39.0,Madonna,Alona,Self,square,538.0,e,mismatch,True
fqy71bajv6,40.0,Madonna,Alona,Friend,circle,776.0,e,mismatch,True
fqy71bajv6,41.0,Madonna,Alona,Self,circle,746.0,i,match,True
fqy71bajv6,42.0,Madonna,Alona,Self,triangle,842.0,i,match,False
fqy71bajv6,43.0,Madonna,Alona,Self,circle,1155.0,i,match,True
fqy71bajv6,44.0,Madonna,Alona,Friend,square,663.0,e,mismatch,False
fqy71bajv6,45.0,Madonna,Alona,Self,triangle,680.0,i,match,False
fqy71bajv6,46.0,Madonna,Alona,Friend,square,710.0,i,match,True
fqy71bajv6,47.0,Madonna,Alona,Self,square,678.0,e,mismatch,True
fqy71bajv6,48.0,Madonna,Alona,Friend,circle,913.0,e,mismatch,True
fqy71bajv6,49.0,Madonna,Alona,Friend,triangle,577.0,i,match,False
fqy71bajv6,50.0,Madonna,Alona,Friend,triangle,897.0,e,mismatch,True
fqy71bajv6,51.0,Madonna,Alona,Stranger,square,1160.0,e,mismatch,True
fqy71bajv6,52.0,Madonna,Alona,Friend,square,602.0,e,mismatch,False
fqy71bajv6,53.0,Madonna,Alona,Self,circle,896.0,i,match,True
fqy71bajv6,54.0,Madonna,Alona,Self,triangle,953.0,e,mismatch,True
fqy71bajv6,55.0,Madonna,Alona,Friend,triangle,870.0,e,mismatch,True
fqy71bajv6,56.0,Madonna,Alona,Stranger,circle,847.0,i,match,False
fqy71bajv6,57.0,Madonna,Alona,Stranger,circle,1102.0,e,mismatch,True
fqy71bajv6,58.0,Madonna,Alona,Friend,triangle,945.0,e,mismatch,True
fqy71bajv6,59.0,Madonna,Alona,Friend,triangle,761.0,e,mismatch,True
fqy71bajv6,60.0,Madonna,Alona,Self,square,1015.0,i,match,False
fqy71bajv6,61.0,Madonna,Alona,Friend,circle,736.0,e,mismatch,True
fqy71bajv6,62.0,Madonna,Alona,Stranger,square,641.0,i,match,False
fqy71bajv6,63.0,Madonna,Alona,Friend,circle,714.0,e,mismatch,True
fqy71bajv6,64.0,Madonna,Alona,Self,triangle,814.0,e,mismatch,True
fqy71bajv6,65.0,Madonna,Alona,Friend,triangle,765.0,i,match,False
fqy71bajv6,66.0,Madonna,Alona,Friend,circle,691.0,e,mismatch,True
fqy71bajv6,67.0,Madonna,Alona,Self,triangle,1652.0,i,match,False
fqy71bajv6,68.0,Madonna,Alona,Self,triangle,741.0,e,mismatch,True
fqy71bajv6,69.0,Madonna,Alona,Self,square,663.0,e,mismatch,True
fqy71bajv6,70.0,Madonna,Alona,Self,triangle,955.0,e,mismatch,True
fqy71bajv6,71.0,Madonna,Alona,Self,circle,516.0,e,mismatch,False
fqy71bajv6,72.0,Madonna,Alona,Self,triangle,834.0,e,mismatch,True
fqy71bajv6,73.0,Madonna,Alona,Friend,triangle,803.0,i,match,False
fqy71bajv6,74.0,Madonna,Alona,Stranger,triangle,889.0,i,match,True
fqy71bajv6,75.0,Madonna,Alona,Self,triangle,771.0,e,mismatch,True
fqy71bajv6,76.0,Madonna,Alona,Self,triangle,1589.0,e,mismatch,True
fqy71bajv6,77.0,Madonna,Alona,Self,square,910.0,i,match,False
fqy71bajv6,78.0,Madonna,Alona,Stranger,square,1512.0,e,mismatch,True
fqy71bajv6,79.0,Madonna,Alona,Friend,triangle,722.0,e,mismatch,True
fqy71bajv6,80.0,Madonna,Alona,Stranger,square,730.0,i,match,False
fqy71bajv6,81.0,Madonna,Alona,Stranger,circle,773.0,e,mismatch,True
fqy71bajv6,82.0,Madonna,Alona,Self,square,913.0,e,mismatch,True
fqy71bajv6,83.0,Madonna,Alona,Stranger,circle,850.0,e,mismatch,True
fqy71bajv6,84.0,Madonna,Alona,Friend,square,1056.0,e,mismatch,False
fqy71bajv6,85.0,Madonna,Alona,Friend,circle,502.0,e,mismatch,True
fqy71bajv6,86.0,Madonna,Alona,Self,circle,810.0,i,match,True
fqy71bajv6,87.0,Madonna,Alona,Friend,square,541.0,e,mismatch,False
fqy71bajv6,88.0,Madonna,Alona,Self,square,730.0,i,match,False
fqy71bajv6,89.0,Madonna,Alona,Friend,triangle,394.0,e,mismatch,True
fqy71bajv6,90.0,Madonna,Alona,Stranger,triangle,728.0,i,match,True
fqy71bajv6,91.0,Madonna,Alona,Stranger,square,698.0,i,match,False
fqy71bajv6,92.0,Madonna,Alona,Stranger,circle,703.0,e,mismatch,True
fqy71bajv6,93.0,Madonna,Alona,Stranger,square,717.0,e,mismatch,True
fqy71bajv6,94.0,Madonna,Alona,Self,circle,922.0,i,match,True
fqy71bajv6,95.0,Madonna,Alona,Stranger,square,758.0,e,mismatch,True
fqy71bajv6,96.0,Madonna,Alona,Self,square,1047.0,e,mismatch,True
fqy71bajv6,97.0,Madonna,Alona,Friend,square,1178.0,e,mismatch,False
fqy71bajv6,98.0,Madonna,Alona,Self,circle,1933.0,i,match,True
fqy71bajv6,99.0,Madonna,Alona,Friend,triangle,646.0,e,mismatch,True
fqy71bajv6,100.0,Madonna,Alona,Stranger,circle,1470.0,i,match,False
fqy71bajv6,101.0,Madonna,Alona,Self,circle,1397.0,i,match,True
fqy71bajv6,102.0,Madonna,Alona,Friend,square,859.0,e,mismatch,False
fqy71bajv6,103.0,Madonna,Alona,Self,square,839.0,e,mismatch,True
fqy71bajv6,104.0,Madonna,Alona,Stranger,triangle,1033.0,i,match,True
fqy71bajv6,105.0,Madonna,Alona,Stranger,circle,1146.0,e,mismatch,True
fqy71bajv6,106.0,Madonna,Alona,Stranger,triangle,783.0,e,mismatch,False
fqy71bajv6,107.0,Madonna,Alona,Self,square,1072.0,e,mismatch,True
fqy71bajv6,108.0,Madonna,Alona,Friend,triangle,1038.0,i,match,False
fqy71bajv6,109.0,Madonna,Alona,Stranger,circle,960.0,e,mismatch,True
fqy71bajv6,110.0,Madonna,Alona,Stranger,triangle,749.0,i,match,True
fqy71bajv6,111.0,Madonna,Alona,Stranger,square,740.0,e,mismatch,True
fqy71bajv6,112.0,Madonna,Alona,Friend,circle,788.0,e,mismatch,True
fqy71bajv6,113.0,Madonna,Alona,Friend,circle,766.0,e,mismatch,True
fqy71bajv6,114.0,Madonna,Alona,Self,triangle,1160.0,e,mismatch,True
fqy71bajv6,115.0,Madonna,Alona,Self,circle,643.0,i,match,True
fqy71bajv6,116.0,Madonna,Alona,Stranger,circle,648.0,e,mismatch,True
fqy71bajv6,117.0,Madonna,Alona,Stranger,circle,703.0,e,mismatch,True
fqy71bajv6,118.0,Madonna,Alona,Friend,square,911.0,i,match,True
fqy71bajv6,119.0,Madonna,Alona,Self,circle,601.0,e,mismatch,False
fqy71bajv6,120.0,Madonna,Alona,Friend,square,862.0,i,match,True
fqy71bajv6,121.0,Madonna,Alona,Friend,square,740.0,e,mismatch,False
fqy71bajv6,122.0,Madonna,Alona,Friend,square,549.0,i,match,True
fqy71bajv6,123.0,Madonna,Alona,Friend,circle,728.0,e,mismatch,True
fqy71bajv6,124.0,Madonna,Alona,Stranger,square,820.0,e,mismatch,True
fqy71bajv6,125.0,Madonna,Alona,Friend,circle,1134.0,e,mismatch,True
fqy71bajv6,126.0,Madonna,Alona,Friend,circle,501.0,e,mismatch,True
fqy71bajv6,127.0,Madonna,Alona,Stranger,circle,988.0,e,mismatch,True
fqy71bajv6,128.0,Madonna,Alona,Self,circle,1111.0,e,mismatch,False
fqy71bajv6,129.0,Madonna,Alona,Stranger,square,821.0,e,mismatch,True
fqy71bajv6,130.0,Madonna,Alona,Self,square,866.0,e,mismatch,True
fqy71bajv6,131.0,Madonna,Alona,Friend,square,1574.0,i,match,True
fqy71bajv6,132.0,Madonna,Alona,Stranger,square,708.0,e,mismatch,True
fqy71bajv6,133.0,Madonna,Alona,Self,triangle,980.0,e,mismatch,True
fqy71bajv6,134.0,Madonna,Alona,Friend,triangle,1936.0,e,mismatch,True
fqy71bajv6,135.0,Madonna,Alona,Self,triangle,784.0,e,mismatch,True
fqy71bajv6,136.0,Madonna,Alona,Stranger,square,909.0,i,match,False
fqy71bajv6,137.0,Madonna,Alona,Self,triangle,702.0,e,mismatch,True
fqy71bajv6,138.0,Madonna,Alona,Self,circle,587.0,i,match,True
fqy71bajv6,139.0,Madonna,Alona,Friend,square,1059.0,i,match,True
fqy71bajv6,140.0,Madonna,Alona,Self,triangle,580.0,e,mismatch,True
fqy71bajv6,141.0,Madonna,Alona,Friend,triangle,599.0,e,mismatch,True
fqy71bajv6,142.0,Madonna,Alona,Friend,square,726.0,e,mismatch,False
fqy71bajv6,143.0,Madonna,Alona,Friend,triangle,943.0,e,mismatch,True
fqy71bajv6,144.0,Madonna,Alona,Stranger,circle,782.0,e,mismatch,True
fqy71bajv6,145.0,Madonna,Alona,Self,circle,977.0,i,match,True
fqy71bajv6,146.0,Madonna,Alona,Stranger,triangle,618.0,e,mismatch,False
fqy71bajv6,147.0,Madonna,Alona,Self,circle,845.0,i,match,True
fqy71bajv6,148.0,Madonna,Alona,Friend,square,746.0,i,match,True
fqy71bajv6,149.0,Madonna,Alona,Self,circle,824.0,i,match,True
fqy71bajv6,150.0,Madonna,Alona,Stranger,square,802.0,e,mismatch,True
fqy71bajv6,151.0,Madonna,Alona,Self,circle,721.0,i,match,True
fqy71bajv6,152.0,Madonna,Alona,Stranger,triangle,981.0,i,match,True
fqy71bajv6,153.0,Madonna,Alona,Self,circle,792.0,i,match,True
fqy71bajv6,154.0,Madonna,Alona,Friend,square,696.0,i,match,True
fqy71bajv6,155.0,Madonna,Alona,Stranger,circle,779.0,e,mismatch,True
fqy71bajv6,156.0,Madonna,Alona,Stranger,square,760.0,e,mismatch,True
fqy71bajv6,157.0,Madonna,Alona,Self,triangle,833.0,e,mismatch,True
fqy71bajv6,158.0,Madonna,Alona,Stranger,square,1031.0,i,match,False
fqy71bajv6,159.0,Madonna,Alona,Friend,square,912.0,i,match,True
fqy71bajv6,160.0,Madonna,Alona,Self,square,874.0,e,mismatch,True
fqy71bajv6,161.0,Madonna,Alona,Stranger,square,1024.0,e,mismatch,True
fqy71bajv6,162.0,Madonna,Alona,Stranger,triangle,776.0,i,match,True
fqy71bajv6,163.0,Madonna,Alona,Friend,circle,877.0,i,match,False
fqy71bajv6,164.0,Madonna,Alona,Self,circle,600.0,i,match,True
fqy71bajv6,165.0,Madonna,Alona,Friend,triangle,587.0,e,mismatch,True
fqy71bajv6,166.0,Madonna,Alona,Self,circle,664.0,i,match,True
fqy71bajv6,167.0,Madonna,Alona,Friend,square,784.0,e,mismatch,False
fqy71bajv6,168.0,Madonna,Alona,Stranger,circle,3870.0,i,match,False
fqy71bajv6,169.0,Madonna,Alona,Stranger,circle,,,,False
fqy71bajv6,170.0,Madonna,Alona,Stranger,triangle,1406.0,i,match,True
fqy71bajv6,171.0,Madonna,Alona,Stranger,square,932.0,e,mismatch,True
fqy71bajv6,172.0,Madonna,Alona,Self,triangle,453.0,i,match,False
fqy71bajv6,173.0,Madonna,Alona,Stranger,circle,1148.0,e,mismatch,True
fqy71bajv6,174.0,Madonna,Alona,Self,square,825.0,e,mismatch,True
fqy71bajv6,175.0,Madonna,Alona,Stranger,square,1894.0,i,match,False
fqy71bajv6,176.0,Madonna,Alona,Stranger,square,926.0,e,mismatch,True
fqy71bajv6,177.0,Madonna,Alona,Self,triangle,4020.0,i,match,False
fqy71bajv6,178.0,Madonna,Alona,Stranger,triangle,1130.0,i,match,True
fqy71bajv6,179.0,Madonna,Alona,Stranger,triangle,,,,False
fqy71bajv6,180.0,Madonna,Alona,Friend,circle,,,,False
fqy71bajv6,181.0,Madonna,Alona,Stranger,square,1738.0,e,mismatch,True
fqy71bajv6,182.0,Madonna,Alona,Stranger,triangle,424.0,i,match,True
fqy71bajv6,183.0,Madonna,Alona,Friend,circle,760.0,e,mismatch,True
fqy71bajv6,184.0,Madonna,Alona,Stranger,circle,309.0,i,match,False
fqy71bajv6,185.0,Madonna,Alona,Stranger,circle,389.0,e,mismatch,True
fqy71bajv6,186.0,Madonna,Alona,Stranger,triangle,409.0,e,mismatch,False
fqy71bajv6,187.0,Madonna,Alona,Stranger,circle,471.0,i,match,False
fqy71bajv6,188.0,Madonna,Alona,Stranger,circle,664.0,e,mismatch,True
fqy71bajv6,189.0,Madonna,Alona,Self,circle,673.0,i,match,True
fqy71bajv6,190.0,Madonna,Alona,Friend,circle,647.0,e,mismatch,True
fqy71bajv6,191.0,Madonna,Alona,Stranger,triangle,1126.0,i,match,True
fqy71bajv6,192.0,Madonna,Alona,Self,triangle,808.0,e,mismatch,True
fqy71bajv6,193.0,Madonna,Alona,Stranger,triangle,362.0,e,mismatch,False
fqy71bajv6,194.0,Madonna,Alona,Stranger,circle,1185.0,e,mismatch,True
fqy71bajv6,195.0,Madonna,Alona,Self,square,951.0,e,mismatch,True
fqy71bajv6,196.0,Madonna,Alona,Stranger,square,600.0,e,mismatch,True
fqy71bajv6,197.0,Madonna,Alona,Self,square,725.0,e,mismatch,True
fqy71bajv6,198.0,Madonna,Alona,Self,square,489.0,e,mismatch,True
fqy71bajv6,199.0,Madonna,Alona,Friend,square,437.0,e,mismatch,False
fqy71bajv6,200.0,Madonna,Alona,Friend,triangle,794.0,e,mismatch,True
fqy71bajv6,201.0,Madonna,Alona,Stranger,square,648.0,e,mismatch,True
fqy71bajv6,202.0,Madonna,Alona,Self,square,747.0,e,mismatch,True
fqy71bajv6,203.0,Madonna,Alona,Stranger,circle,689.0,e,mismatch,True
fqy71bajv6,204.0,Madonna,Alona,Friend,square,1368.0,i,match,True
fqy71bajv6,205.0,Madonna,Alona,Friend,circle,790.0,e,mismatch,True
fqy71bajv6,206.0,Madonna,Alona,Friend,triangle,629.0,e,mismatch,True
fqy71bajv6,207.0,Madonna,Alona,Stranger,circle,796.0,e,mismatch,True
fqy71bajv6,208.0,Madonna,Alona,Self,triangle,721.0,e,mismatch,True
fqy71bajv6,209.0,Madonna,Alona,Stranger,triangle,985.0,e,mismatch,False
fqy71bajv6,210.0,Madonna,Alona,Self,square,821.0,e,mismatch,True
fqy71bajv6,211.0,Madonna,Alona,Stranger,square,963.0,i,match,False
fqy71bajv6,212.0,Madonna,Alona,Stranger,triangle,662.0,i,match,True
fqy71bajv6,213.0,Madonna,Alona,Stranger,square,546.0,e,mismatch,True
fqy71bajv6,214.0,Madonna,Alona,Friend,circle,1158.0,e,mismatch,True
fqy71bajv6,215.0,Madonna,Alona,Self,triangle,655.0,e,mismatch,True
fqy71bajv6,216.0,Madonna,Alona,Self,circle,597.0,i,match,True
fqy71bajv6,217.0,Madonna,Alona,Stranger,triangle,643.0,e,mismatch,False
fqy71bajv6,218.0,Madonna,Alona,Stranger,triangle,689.0,i,match,True
fqy71bajv6,219.0,Madonna,Alona,Self,triangle,623.0,e,mismatch,True
fqy71bajv6,220.0,Madonna,Alona,Friend,triangle,971.0,e,mismatch,True
fqy71bajv6,221.0,Madonna,Alona,Friend,circle,970.0,e,mismatch,True
fqy71bajv6,222.0,Madonna,Alona,Self,circle,782.0,i,match,True
fqy71bajv6,223.0,Madonna,Alona,Self,circle,674.0,i,match,True
fqy71bajv6,224.0,Madonna,Alona,Friend,triangle,879.0,e,mismatch,True
fqy71bajv6,225.0,Madonna,Alona,Self,circle,615.0,i,match,True
fqy71bajv6,226.0,Madonna,Alona,Stranger,circle,731.0,e,mismatch,True
fqy71bajv6,227.0,Madonna,Alona,Self,circle,574.0,e,mismatch,False
fqy71bajv6,228.0,Madonna,Alona,Self,triangle,1006.0,e,mismatch,True
fqy71bajv6,229.0,Madonna,Alona,Stranger,triangle,572.0,e,mismatch,False
fqy71bajv6,230.0,Madonna,Alona,Friend,triangle,1159.0,e,mismatch,True
fqy71bajv6,231.0,Madonna,Alona,Self,square,878.0,e,mismatch,True
fqy71bajv6,232.0,Madonna,Alona,Self,square,415.0,e,mismatch,True
fqy71bajv6,233.0,Madonna,Alona,Stranger,triangle,555.0,e,mismatch,False
fqy71bajv6,234.0,Madonna,Alona,Friend,circle,649.0,i,match,False
fqy71bajv6,235.0,Madonna,Alona,Stranger,triangle,527.0,e,mismatch,False
fqy71bajv6,236.0,Madonna,Alona,Self,square,852.0,e,mismatch,True
fqy71bajv6,237.0,Madonna,Alona,Stranger,triangle,476.0,e,mismatch,False
fqy71bajv6,238.0,Madonna,Alona,Friend,circle,1104.0,e,mismatch,True
fqy71bajv6,239.0,Madonna,Alona,Stranger,square,707.0,e,mismatch,True
fqy71bajv6,240.0,Madonna,Alona,Stranger,square,620.0,e,mismatch,True
fqy71bajv6,241.0,Madonna,Alona,Friend,circle,776.0,e,mismatch,True
fqy71bajv6,242.0,Madonna,Alona,Friend,triangle,1002.0,i,match,False
fqy71bajv6,243.0,Madonna,Alona,Self,triangle,924.0,e,mismatch,True
fqy71bajv6,244.0,Madonna,Alona,Self,square,756.0,e,mismatch,True
fqy71bajv6,245.0,Madonna,Alona,Friend,circle,660.0,e,mismatch,True
fqy71bajv6,246.0,Madonna,Alona,Self,square,996.0,e,mismatch,True
fqy71bajv6,247.0,Madonna,Alona,Stranger,square,2454.0,e,mismatch,True
fqy71bajv6,248.0,Madonna,Alona,Self,circle,652.0,i,match,True
fqy71bajv6,249.0,Madonna,Alona,Stranger,square,1406.0,e,mismatch,True
fqy71bajv6,250.0,Madonna,Alona,Friend,square,811.0,e,mismatch,False
fqy71bajv6,251.0,Madonna,Alona,Self,square,889.0,e,mismatch,True
fqy71bajv6,252.0,Madonna,Alona,Friend,square,713.0,i,match,True
fqy71bajv6,253.0,Madonna,Alona,Friend,square,616.0,i,match,True
fqy71bajv6,254.0,Madonna,Alona,Friend,square,658.0,i,match,True
fqy71bajv6,255.0,Madonna,Alona,Stranger,triangle,765.0,e,mismatch,False
fqy71bajv6,256.0,Madonna,Alona,Self,square,918.0,e,mismatch,True
fqy71bajv6,257.0,Madonna,Alona,Stranger,square,706.0,e,mismatch,True
fqy71bajv6,258.0,Madonna,Alona,Friend,triangle,1486.0,i,match,False
fqy71bajv6,259.0,Madonna,Alona,Stranger,circle,2241.0,e,mismatch,True
fqy71bajv6,260.0,Madonna,Alona,Friend,triangle,1424.0,e,mismatch,True
fqy71bajv6,261.0,Madonna,Alona,Stranger,triangle,1076.0,i,match,True
fqy71bajv6,262.0,Madonna,Alona,Stranger,square,675.0,e,mismatch,True
fqy71bajv6,263.0,Madonna,Alona,Friend,triangle,775.0,e,mismatch,True
fqy71bajv6,264.0,Madonna,Alona,Stranger,circle,551.0,e,mismatch,True
fqy71bajv6,265.0,Madonna,Alona,Self,triangle,832.0,e,mismatch,True
fqy71bajv6,266.0,Madonna,Alona,Friend,circle,748.0,e,mismatch,True
fqy71bajv6,267.0,Madonna,Alona,Stranger,triangle,1827.0,e,mismatch,False
fqy71bajv6,268.0,Madonna,Alona,Self,triangle,849.0,e,mismatch,True
fqy71bajv6,269.0,Madonna,Alona,Friend,square,716.0,i,match,True
fqy71bajv6,270.0,Madonna,Alona,Stranger,circle,558.0,e,mismatch,True
fqy71bajv6,271.0,Madonna,Alona,Self,circle,894.0,i,match,True
fqy71bajv6,272.0,Madonna,Alona,Self,triangle,581.0,e,mismatch,True
fqy71bajv6,273.0,Madonna,Alona,Stranger,triangle,604.0,e,mismatch,False
fqy71bajv6,274.0,Madonna,Alona,Stranger,triangle,754.0,e,mismatch,False
fqy71bajv6,275.0,Madonna,Alona,Friend,square,725.0,e,mismatch,False
fqy71bajv6,276.0,Madonna,Alona,Stranger,circle,658.0,e,mismatch,True
fqy71bajv6,277.0,Madonna,Alona,Stranger,triangle,609.0,e,mismatch,False
fqy71bajv6,278.0,Madonna,Alona,Self,circle,600.0,i,match,True
fqy71bajv6,279.0,Madonna,Alona,Self,square,1863.0,e,mismatch,True
fqy71bajv6,280.0,Madonna,Alona,Self,triangle,863.0,e,mismatch,True
fqy71bajv6,281.0,Madonna,Alona,Friend,triangle,2116.0,e,mismatch,True
fqy71bajv6,282.0,Madonna,Alona,Self,square,828.0,e,mismatch,True
fqy71bajv6,283.0,Madonna,Alona,Self,square,882.0,e,mismatch,True
fqy71bajv6,284.0,Madonna,Alona,Friend,triangle,1288.0,i,match,False
fqy71bajv6,285.0,Madonna,Alona,Self,square,1328.0,e,mismatch,True
fqy71bajv6,286.0,Madonna,Alona,Friend,square,791.0,i,match,True
fqy71bajv6,287.0,Madonna,Alona,Friend,triangle,971.0,e,mismatch,True
fqy71bajv6,288.0,Madonna,Alona,Stranger,circle,1339.0,e,mismatch,True
fqy71bajv6,289.0,Madonna,Alona,Friend,circle,951.0,e,mismatch,True
fqy71bajv6,290.0,Madonna,Alona,Friend,circle,581.0,e,mismatch,True
fqy71bajv6,291.0,Madonna,Alona,Self,triangle,911.0,e,mismatch,True
fqy71bajv6,292.0,Madonna,Alona,Friend,circle,943.0,e,mismatch,True
fqy71bajv6,293.0,Madonna,Alona,Friend,triangle,838.0,e,mismatch,True
fqy71bajv6,294.0,Madonna,Alona,Friend,triangle,733.0,e,mismatch,True
fqy71bajv6,295.0,Madonna,Alona,Self,square,1842.0,e,mismatch,True
fqy71bajv6,296.0,Madonna,Alona,Stranger,triangle,1176.0,i,match,True
fqy71bajv6,297.0,Madonna,Alona,Stranger,circle,750.0,e,mismatch,True
fqy71bajv6,298.0,Madonna,Alona,Self,circle,440.0,e,mismatch,False
fqy71bajv6,299.0,Madonna,Alona,Friend,circle,690.0,e,mismatch,True
fqy71bajv6,300.0,Madonna,Alona,Friend,triangle,1021.0,e,mismatch,True
fqy71bajv6,301.0,Madonna,Alona,Self,square,957.0,e,mismatch,True
fqy71bajv6,302.0,Madonna,Alona,Friend,square,597.0,e,mismatch,False
fqy71bajv6,303.0,Madonna,Alona,Stranger,square,1049.0,e,mismatch,True
fqy71bajv6,304.0,Madonna,Alona,Friend,triangle,743.0,i,match,False
fqy71bajv6,305.0,Madonna,Alona,Friend,circle,805.0,e,mismatch,True
fqy71bajv6,306.0,Madonna,Alona,Stranger,circle,753.0,e,mismatch,True
fqy71bajv6,307.0,Madonna,Alona,Stranger,circle,422.0,e,mismatch,True
fqy71bajv6,308.0,Madonna,Alona,Self,square,1036.0,e,mismatch,True
fqy71bajv6,309.0,Madonna,Alona,Stranger,square,502.0,e,mismatch,True
fqy71bajv6,310.0,Madonna,Alona,Friend,square,466.0,e,mismatch,False
fqy71bajv6,311.0,Madonna,Alona,Friend,triangle,487.0,e,mismatch,True
fqy71bajv6,312.0,Madonna,Alona,Self,triangle,950.0,e,mismatch,True
fqy71bajv6,313.0,Madonna,Alona,Friend,square,703.0,i,match,True
fqy71bajv6,314.0,Madonna,Alona,Stranger,circle,708.0,e,mismatch,True
fqy71bajv6,315.0,Madonna,Alona,Friend,square,1259.0,i,match,True
fqy71bajv6,316.0,Madonna,Alona,Friend,circle,987.0,e,mismatch,True
fqy71bajv6,317.0,Madonna,Alona,Self,circle,545.0,i,match,True
fqy71bajv6,318.0,Madonna,Alona,Friend,circle,822.0,e,mismatch,True
fqy71bajv6,319.0,Madonna,Alona,Stranger,square,739.0,e,mismatch,True
fqy71bajv6,320.0,Madonna,Alona,Friend,circle,846.0,e,mismatch,True
fqy71bajv6,321.0,Madonna,Alona,Stranger,triangle,818.0,e,mismatch,False
fqy71bajv6,322.0,Madonna,Alona,Self,square,691.0,e,mismatch,True
fqy71bajv6,323.0,Madonna,Alona,Self,triangle,1483.0,e,mismatch,True
fqy71bajv6,324.0,Madonna,Alona,Friend,circle,1054.0,e,mismatch,True
sx9kmgaj4y,1.0,Eminem,xxx,Friend,cercle,1054.0,i,mismatch,False
sx9kmgaj4y,2.0,Eminem,xxx,Stranger,cercle,721.0,i,mismatch,True
sx9kmgaj4y,3.0,Eminem,xxx,Stranger,cercle,537.0,i,mismatch,True
sx9kmgaj4y,4.0,Eminem,xxx,Friend,carré,434.0,i,mismatch,True
sx9kmgaj4y,5.0,Eminem,xxx,Friend,carré,401.0,i,mismatch,True
sx9kmgaj4y,6.0,Eminem,xxx,Friend,cercle,606.0,e,match,True
sx9kmgaj4y,7.0,Eminem,xxx,Self,cercle,696.0,i,mismatch,True
sx9kmgaj4y,8.0,Eminem,xxx,Stranger,carré,1225.0,e,match,False
sx9kmgaj4y,9.0,Eminem,xxx,Stranger,triangle,601.0,e,match,True
sx9kmgaj4y,10.0,Eminem,xxx,Friend,cercle,846.0,i,mismatch,False
sx9kmgaj4y,11.0,Eminem,xxx,Self,carré,915.0,e,match,True
sx9kmgaj4y,12.0,Eminem,xxx,Self,triangle,1147.0,i,mismatch,True
sx9kmgaj4y,13.0,Eminem,xxx,Self,triangle,794.0,i,mismatch,True
sx9kmgaj4y,14.0,Eminem,xxx,Stranger,triangle,1206.0,e,match,True
sx9kmgaj4y,15.0,Eminem,xxx,Stranger,cercle,763.0,i,mismatch,True
sx9kmgaj4y,16.0,Eminem,xxx,Stranger,cercle,1102.0,i,mismatch,True
sx9kmgaj4y,17.0,Eminem,xxx,Friend,triangle,866.0,i,mismatch,True
sx9kmgaj4y,18.0,Eminem,xxx,Friend,triangle,457.0,i,mismatch,True
sx9kmgaj4y,19.0,Eminem,xxx,Self,cercle,879.0,i,mismatch,True
sx9kmgaj4y,20.0,Eminem,xxx,Friend,triangle,522.0,i,mismatch,True
sx9kmgaj4y,21.0,Eminem,xxx,Stranger,triangle,805.0,e,match,True
sx9kmgaj4y,22.0,Eminem,xxx,Stranger,cercle,667.0,i,mismatch,True
sx9kmgaj4y,23.0,Eminem,xxx,Stranger,triangle,586.0,i,mismatch,False
sx9kmgaj4y,24.0,Eminem,xxx,Self,cercle,652.0,i,mismatch,True
sx9kmgaj4y,25.0,Eminem,xxx,Self,carré,479.0,e,match,True
sx9kmgaj4y,26.0,Eminem,xxx,Friend,carré,902.0,e,match,False
sx9kmgaj4y,27.0,Eminem,xxx,Stranger,cercle,575.0,e,match,False
sx9kmgaj4y,28.0,Eminem,xxx,Friend,triangle,399.0,e,match,False
sx9kmgaj4y,29.0,Eminem,xxx,Self,cercle,289.0,e,match,False
sx9kmgaj4y,30.0,Eminem,xxx,Stranger,carré,230.0,e,match,False
sx9kmgaj4y,31.0,Eminem,xxx,Self,carré,698.0,i,mismatch,False
sx9kmgaj4y,32.0,Eminem,xxx,Friend,triangle,603.0,i,mismatch,True
sx9kmgaj4y,33.0,Eminem,xxx,Stranger,cercle,922.0,i,mismatch,True
sx9kmgaj4y,34.0,Eminem,xxx,Stranger,triangle,506.0,e,match,True
sx9kmgaj4y,35.0,Eminem,xxx,Stranger,triangle,736.0,e,match,True
sx9kmgaj4y,36.0,Eminem,xxx,Friend,cercle,441.0,e,match,True
sx9kmgaj4y,37.0,Eminem,xxx,Self,triangle,687.0,i,mismatch,True
sx9kmgaj4y,38.0,Eminem,xxx,Stranger,carré,772.0,i,mismatch,True
sx9kmgaj4y,39.0,Eminem,xxx,Self,cercle,615.0,i,mismatch,True
sx9kmgaj4y,40.0,Eminem,xxx,Self,cercle,513.0,i,mismatch,True
sx9kmgaj4y,41.0,Eminem,xxx,Stranger,cercle,491.0,i,mismatch,True
sx9kmgaj4y,42.0,Eminem,xxx,Friend,carré,478.0,e,match,False
sx9kmgaj4y,43.0,Eminem,xxx,Self,carré,388.0,e,match,True
sx9kmgaj4y,44.0,Eminem,xxx,Self,cercle,692.0,i,mismatch,True
sx9kmgaj4y,45.0,Eminem,xxx,Friend,triangle,1002.0,e,match,False
sx9kmgaj4y,46.0,Eminem,xxx,Self,cercle,679.0,e,match,False
sx9kmgaj4y,47.0,Eminem,xxx,Friend,cercle,235.0,i,mismatch,False
sx9kmgaj4y,48.0,Eminem,xxx,Self,carré,131.0,e,match,True
sx9kmgaj4y,49.0,Eminem,xxx,Friend,triangle,752.0,i,mismatch,True
sx9kmgaj4y,50.0,Eminem,xxx,Self,triangle,937.0,i,mismatch,True
sx9kmgaj4y,51.0,Eminem,xxx,Self,triangle,521.0,i,mismatch,True
sx9kmgaj4y,52.0,Eminem,xxx,Friend,triangle,552.0,i,mismatch,True
sx9kmgaj4y,53.0,Eminem,xxx,Self,triangle,575.0,i,mismatch,True
sx9kmgaj4y,54.0,Eminem,xxx,Self,triangle,506.0,i,mismatch,True
sx9kmgaj4y,55.0,Eminem,xxx,Friend,triangle,710.0,i,mismatch,True
sx9kmgaj4y,56.0,Eminem,xxx,Self,triangle,581.0,i,mismatch,True
sx9kmgaj4y,57.0,Eminem,xxx,Friend,cercle,752.0,e,match,True
sx9kmgaj4y,58.0,Eminem,xxx,Stranger,triangle,736.0,e,match,True
sx9kmgaj4y,59.0,Eminem,xxx,Stranger,carré,678.0,i,mismatch,True
sx9kmgaj4y,60.0,Eminem,xxx,Stranger,carré,871.0,i,mismatch,True
sx9kmgaj4y,61.0,Eminem,xxx,Self,cercle,1177.0,i,mismatch,True
sx9kmgaj4y,62.0,Eminem,xxx,Friend,triangle,797.0,i,mismatch,True
sx9kmgaj4y,63.0,Eminem,xxx,Self,carré,766.0,i,mismatch,False
sx9kmgaj4y,64.0,Eminem,xxx,Stranger,cercle,785.0,e,match,False
sx9kmgaj4y,65.0,Eminem,xxx,Self,cercle,722.0,i,mismatch,True
sx9kmgaj4y,66.0,Eminem,xxx,Friend,carré,675.0,i,mismatch,True
sx9kmgaj4y,67.0,Eminem,xxx,Friend,carré,463.0,i,mismatch,True
sx9kmgaj4y,68.0,Eminem,xxx,Friend,triangle,751.0,i,mismatch,True
sx9kmgaj4y,69.0,Eminem,xxx,Self,carré,671.0,e,match,True
sx9kmgaj4y,70.0,Eminem,xxx,Self,cercle,617.0,i,mismatch,True
sx9kmgaj4y,71.0,Eminem,xxx,Self,triangle,1042.0,i,mismatch,True
sx9kmgaj4y,72.0,Eminem,xxx,Stranger,triangle,741.0,i,mismatch,False
sx9kmgaj4y,73.0,Eminem,xxx,Stranger,carré,438.0,i,mismatch,True
sx9kmgaj4y,74.0,Eminem,xxx,Self,carré,624.0,i,mismatch,False
sx9kmgaj4y,75.0,Eminem,xxx,Stranger,carré,399.0,e,match,False
sx9kmgaj4y,76.0,Eminem,xxx,Stranger,carré,231.0,i,mismatch,True
sx9kmgaj4y,77.0,Eminem,xxx,Friend,triangle,387.0,e,match,False
sx9kmgaj4y,78.0,Eminem,xxx,Self,triangle,351.0,e,match,False
sx9kmgaj4y,79.0,Eminem,xxx,Friend,cercle,153.0,i,mismatch,False
sx9kmgaj4y,80.0,Eminem,xxx,Self,cercle,217.0,e,match,False
sx9kmgaj4y,81.0,Eminem,xxx,Stranger,cercle,87.0,i,mismatch,True
sx9kmgaj4y,82.0,Eminem,xxx,Self,triangle,169.0,e,match,False
sx9kmgaj4y,83.0,Eminem,xxx,Friend,carré,252.0,i,mismatch,True
sx9kmgaj4y,84.0,Eminem,xxx,Friend,cercle,235.0,e,match,True
sx9kmgaj4y,85.0,Eminem,xxx,Self,cercle,279.0,e,match,False
sx9kmgaj4y,86.0,Eminem,xxx,Self,triangle,251.0,i,mismatch,True
sx9kmgaj4y,87.0,Eminem,xxx,Stranger,carré,658.0,e,match,False
sx9kmgaj4y,88.0,Eminem,xxx,Stranger,cercle,190.0,i,mismatch,True
sx9kmgaj4y,89.0,Eminem,xxx,Friend,triangle,154.0,e,match,False
sx9kmgaj4y,90.0,Eminem,xxx,Friend,carré,73.0,i,mismatch,True
sx9kmgaj4y,91.0,Eminem,xxx,Stranger,triangle,77.0,e,match,True
sx9kmgaj4y,92.0,Eminem,xxx,Stranger,cercle,327.0,i,mismatch,True
sx9kmgaj4y,93.0,Eminem,xxx,Friend,carré,538.0,e,match,False
sx9kmgaj4y,94.0,Eminem,xxx,Self,carré,475.0,e,match,True
sx9kmgaj4y,95.0,Eminem,xxx,Self,cercle,745.0,i,mismatch,True
sx9kmgaj4y,96.0,Eminem,xxx,Stranger,carré,922.0,i,mismatch,True
sx9kmgaj4y,97.0,Eminem,xxx,Stranger,cercle,625.0,e,match,False
sx9kmgaj4y,98.0,Eminem,xxx,Stranger,carré,735.0,i,mismatch,True
sx9kmgaj4y,99.0,Eminem,xxx,Self,carré,947.0,e,match,True
sx9kmgaj4y,100.0,Eminem,xxx,Stranger,carré,591.0,i,mismatch,True
sx9kmgaj4y,101.0,Eminem,xxx,Friend,cercle,585.0,i,mismatch,False
sx9kmgaj4y,102.0,Eminem,xxx,Friend,cercle,404.0,e,match,True
sx9kmgaj4y,103.0,Eminem,xxx,Friend,cercle,337.0,e,match,True
sx9kmgaj4y,104.0,Eminem,xxx,Friend,cercle,385.0,e,match,True
sx9kmgaj4y,105.0,Eminem,xxx,Friend,cercle,535.0,e,match,True
sx9kmgaj4y,106.0,Eminem,xxx,Self,cercle,555.0,i,mismatch,True
sx9kmgaj4y,107.0,Eminem,xxx,Self,triangle,715.0,i,mismatch,True
sx9kmgaj4y,108.0,Eminem,xxx,Self,cercle,951.0,i,mismatch,True
sx9kmgaj4y,109.0,Eminem,xxx,Stranger,triangle,528.0,e,match,True
sx9kmgaj4y,110.0,Eminem,xxx,Stranger,triangle,564.0,e,match,True
sx9kmgaj4y,111.0,Eminem,xxx,Stranger,carré,615.0,i,mismatch,True
sx9kmgaj4y,112.0,Eminem,xxx,Friend,cercle,909.0,i,mismatch,False
sx9kmgaj4y,113.0,Eminem,xxx,Stranger,carré,685.0,i,mismatch,True
sx9kmgaj4y,114.0,Eminem,xxx,Friend,cercle,589.0,i,mismatch,False
sx9kmgaj4y,115.0,Eminem,xxx,Stranger,cercle,678.0,i,mismatch,True
sx9kmgaj4y,116.0,Eminem,xxx,Self,carré,1037.0,e,match,True
sx9kmgaj4y,117.0,Eminem,xxx,Friend,carré,647.0,i,mismatch,True
sx9kmgaj4y,118.0,Eminem,xxx,Self,carré,474.0,e,match,True
sx9kmgaj4y,119.0,Eminem,xxx,Stranger,carré,579.0,i,mismatch,True
sx9kmgaj4y,120.0,Eminem,xxx,Self,carré,651.0,e,match,True
sx9kmgaj4y,121.0,Eminem,xxx,Self,carré,481.0,e,match,True
sx9kmgaj4y,122.0,Eminem,xxx,Friend,cercle,575.0,i,mismatch,False
sx9kmgaj4y,123.0,Eminem,xxx,Stranger,triangle,753.0,e,match,True
sx9kmgaj4y,124.0,Eminem,xxx,Friend,triangle,504.0,e,match,False
sx9kmgaj4y,125.0,Eminem,xxx,Friend,cercle,874.0,e,match,True
sx9kmgaj4y,126.0,Eminem,xxx,Friend,triangle,672.0,i,mismatch,True
sx9kmgaj4y,127.0,Eminem,xxx,Friend,triangle,803.0,i,mismatch,True
sx9kmgaj4y,128.0,Eminem,xxx,Self,carré,605.0,e,match,True
sx9kmgaj4y,129.0,Eminem,xxx,Self,triangle,688.0,i,mismatch,True
sx9kmgaj4y,130.0,Eminem,xxx,Friend,carré,1219.0,i,mismatch,True
sx9kmgaj4y,131.0,Eminem,xxx,Stranger,carré,971.0,i,mismatch,True
sx9kmgaj4y,132.0,Eminem,xxx,Self,carré,653.0,e,match,True
sx9kmgaj4y,133.0,Eminem,xxx,Stranger,carré,583.0,i,mismatch,True
sx9kmgaj4y,134.0,Eminem,xxx,Self,carré,625.0,e,match,True
sx9kmgaj4y,135.0,Eminem,xxx,Stranger,cercle,1015.0,i,mismatch,True
sx9kmgaj4y,136.0,Eminem,xxx,Stranger,cercle,715.0,i,mismatch,True
sx9kmgaj4y,137.0,Eminem,xxx,Stranger,carré,602.0,i,mismatch,True
sx9kmgaj4y,138.0,Eminem,xxx,Friend,carré,737.0,i,mismatch,True
sx9kmgaj4y,139.0,Eminem,xxx,Friend,cercle,708.0,e,match,True
sx9kmgaj4y,140.0,Eminem,xxx,Friend,cercle,903.0,e,match,True
sx9kmgaj4y,141.0,Eminem,xxx,Stranger,cercle,607.0,i,mismatch,True
sx9kmgaj4y,142.0,Eminem,xxx,Self,triangle,703.0,i,mismatch,True
sx9kmgaj4y,143.0,Eminem,xxx,Self,cercle,585.0,i,mismatch,True
sx9kmgaj4y,144.0,Eminem,xxx,Self,carré,639.0,e,match,True
sx9kmgaj4y,145.0,Eminem,xxx,Self,cercle,579.0,i,mismatch,True
sx9kmgaj4y,146.0,Eminem,xxx,Friend,carré,822.0,i,mismatch,True
sx9kmgaj4y,147.0,Eminem,xxx,Stranger,triangle,921.0,e,match,True
sx9kmgaj4y,148.0,Eminem,xxx,Self,carré,720.0,e,match,True
sx9kmgaj4y,149.0,Eminem,xxx,Friend,triangle,643.0,i,mismatch,True
sx9kmgaj4y,150.0,Eminem,xxx,Stranger,triangle,812.0,e,match,True
sx9kmgaj4y,151.0,Eminem,xxx,Friend,triangle,593.0,i,mismatch,True
sx9kmgaj4y,152.0,Eminem,xxx,Self,cercle,571.0,e,match,False
sx9kmgaj4y,153.0,Eminem,xxx,Self,triangle,723.0,i,mismatch,True
sx9kmgaj4y,154.0,Eminem,xxx,Self,triangle,715.0,i,mismatch,True
sx9kmgaj4y,155.0,Eminem,xxx,Self,carré,543.0,e,match,True
sx9kmgaj4y,156.0,Eminem,xxx,Self,triangle,740.0,i,mismatch,True
sx9kmgaj4y,157.0,Eminem,xxx,Friend,triangle,658.0,i,mismatch,True
sx9kmgaj4y,158.0,Eminem,xxx,Self,triangle,834.0,i,mismatch,True
sx9kmgaj4y,159.0,Eminem,xxx,Stranger,cercle,916.0,e,match,False
sx9kmgaj4y,160.0,Eminem,xxx,Self,cercle,663.0,e,match,False
sx9kmgaj4y,161.0,Eminem,xxx,Friend,carré,1081.0,i,mismatch,True
sx9kmgaj4y,162.0,Eminem,xxx,Friend,cercle,596.0,i,mismatch,False
sx9kmgaj4y,163.0,Eminem,xxx,Self,carré,613.0,e,match,True
sx9kmgaj4y,164.0,Eminem,xxx,Stranger,cercle,543.0,i,mismatch,True
sx9kmgaj4y,165.0,Eminem,xxx,Stranger,triangle,502.0,i,mismatch,False
sx9kmgaj4y,166.0,Eminem,xxx,Friend,carré,582.0,i,mismatch,True
sx9kmgaj4y,167.0,Eminem,xxx,Stranger,cercle,832.0,i,mismatch,True
sx9kmgaj4y,168.0,Eminem,xxx,Stranger,triangle,531.0,e,match,True
sx9kmgaj4y,169.0,Eminem,xxx,Stranger,carré,863.0,i,mismatch,True
sx9kmgaj4y,170.0,Eminem,xxx,Friend,cercle,424.0,e,match,True
sx9kmgaj4y,171.0,Eminem,xxx,Stranger,triangle,919.0,e,match,True
sx9kmgaj4y,172.0,Eminem,xxx,Friend,cercle,840.0,e,match,True
sx9kmgaj4y,173.0,Eminem,xxx,Self,carré,427.0,e,match,True
sx9kmgaj4y,174.0,Eminem,xxx,Stranger,cercle,1577.0,i,mismatch,True
sx9kmgaj4y,175.0,Eminem,xxx,Stranger,triangle,747.0,e,match,True
sx9kmgaj4y,176.0,Eminem,xxx,Self,cercle,545.0,i,mismatch,True
sx9kmgaj4y,177.0,Eminem,xxx,Self,cercle,579.0,i,mismatch,True
sx9kmgaj4y,178.0,Eminem,xxx,Stranger,triangle,710.0,e,match,True
sx9kmgaj4y,179.0,Eminem,xxx,Self,triangle,837.0,i,mismatch,True
sx9kmgaj4y,180.0,Eminem,xxx,Stranger,triangle,761.0,e,match,True
sx9kmgaj4y,181.0,Eminem,xxx,Friend,cercle,441.0,e,match,True
sx9kmgaj4y,182.0,Eminem,xxx,Stranger,carré,690.0,i,mismatch,True
sx9kmgaj4y,183.0,Eminem,xxx,Self,carré,500.0,e,match,True
sx9kmgaj4y,184.0,Eminem,xxx,Self,triangle,582.0,i,mismatch,True
sx9kmgaj4y,185.0,Eminem,xxx,Stranger,carré,657.0,i,mismatch,True
sx9kmgaj4y,186.0,Eminem,xxx,Friend,carré,830.0,i,mismatch,True
sx9kmgaj4y,187.0,Eminem,xxx,Friend,carré,531.0,i,mismatch,True
sx9kmgaj4y,188.0,Eminem,xxx,Stranger,triangle,691.0,e,match,True
sx9kmgaj4y,189.0,Eminem,xxx,Friend,cercle,565.0,e,match,True
sx9kmgaj4y,190.0,Eminem,xxx,Stranger,cercle,651.0,i,mismatch,True
sx9kmgaj4y,191.0,Eminem,xxx,Self,carré,604.0,e,match,True
sx9kmgaj4y,192.0,Eminem,xxx,Stranger,carré,504.0,i,mismatch,True
sx9kmgaj4y,193.0,Eminem,xxx,Stranger,cercle,905.0,i,mismatch,True
sx9kmgaj4y,194.0,Eminem,xxx,Self,triangle,695.0,i,mismatch,True
sx9kmgaj4y,195.0,Eminem,xxx,Friend,carré,901.0,e,match,False
sx9kmgaj4y,196.0,Eminem,xxx,Friend,triangle,604.0,i,mismatch,True
sx9kmgaj4y,197.0,Eminem,xxx,Stranger,triangle,725.0,e,match,True
sx9kmgaj4y,198.0,Eminem,xxx,Self,triangle,860.0,i,mismatch,True
sx9kmgaj4y,199.0,Eminem,xxx,Stranger,cercle,1387.0,i,mismatch,True
sx9kmgaj4y,200.0,Eminem,xxx,Friend,triangle,555.0,i,mismatch,True
sx9kmgaj4y,201.0,Eminem,xxx,Stranger,triangle,494.0,i,mismatch,False
sx9kmgaj4y,202.0,Eminem,xxx,Self,carré,574.0,e,match,True
sx9kmgaj4y,203.0,Eminem,xxx,Self,carré,598.0,e,match,True
sx9kmgaj4y,204.0,Eminem,xxx,Stranger,carré,659.0,i,mismatch,True
sx9kmgaj4y,205.0,Eminem,xxx,Self,cercle,726.0,i,mismatch,True
sx9kmgaj4y,206.0,Eminem,xxx,Stranger,cercle,1076.0,i,mismatch,True
sx9kmgaj4y,207.0,Eminem,xxx,Friend,cercle,571.0,e,match,True
sx9kmgaj4y,208.0,Eminem,xxx,Friend,carré,641.0,e,match,False
sx9kmgaj4y,209.0,Eminem,xxx,Self,cercle,642.0,i,mismatch,True
sx9kmgaj4y,210.0,Eminem,xxx,Stranger,triangle,581.0,e,match,True
sx9kmgaj4y,211.0,Eminem,xxx,Self,carré,615.0,e,match,True
sx9kmgaj4y,212.0,Eminem,xxx,Stranger,carré,672.0,i,mismatch,True
sx9kmgaj4y,213.0,Eminem,xxx,Friend,carré,590.0,e,match,False
sx9kmgaj4y,214.0,Eminem,xxx,Friend,carré,722.0,i,mismatch,True
sx9kmgaj4y,215.0,Eminem,xxx,Friend,carré,544.0,i,mismatch,True
sx9kmgaj4y,216.0,Eminem,xxx,Friend,carré,478.0,i,mismatch,True
sx9kmgaj4y,217.0,Eminem,xxx,Friend,triangle,664.0,i,mismatch,True
sx9kmgaj4y,218.0,Eminem,xxx,Stranger,carré,727.0,i,mismatch,True
sx9kmgaj4y,219.0,Eminem,xxx,Self,triangle,620.0,i,mismatch,True
sx9kmgaj4y,220.0,Eminem,xxx,Self,carré,757.0,e,match,True
sx9kmgaj4y,221.0,Eminem,xxx,Friend,triangle,520.0,i,mismatch,True
sx9kmgaj4y,222.0,Eminem,xxx,Friend,triangle,546.0,i,mismatch,True
sx9kmgaj4y,223.0,Eminem,xxx,Self,triangle,733.0,i,mismatch,True
sx9kmgaj4y,224.0,Eminem,xxx,Stranger,cercle,831.0,e,match,False
sx9kmgaj4y,225.0,Eminem,xxx,Stranger,triangle,784.0,e,match,True
sx9kmgaj4y,226.0,Eminem,xxx,Stranger,cercle,560.0,i,mismatch,True
sx9kmgaj4y,227.0,Eminem,xxx,Friend,cercle,649.0,i,mismatch,False
sx9kmgaj4y,228.0,Eminem,xxx,Stranger,triangle,642.0,e,match,True
sx9kmgaj4y,229.0,Eminem,xxx,Stranger,carré,710.0,e,match,False
sx9kmgaj4y,230.0,Eminem,xxx,Self,triangle,754.0,i,mismatch,True
sx9kmgaj4y,231.0,Eminem,xxx,Self,triangle,568.0,i,mismatch,True
sx9kmgaj4y,232.0,Eminem,xxx,Stranger,cercle,1008.0,i,mismatch,True
sx9kmgaj4y,233.0,Eminem,xxx,Stranger,cercle,783.0,i,mismatch,True
sx9kmgaj4y,234.0,Eminem,xxx,Friend,cercle,707.0,i,mismatch,False
sx9kmgaj4y,235.0,Eminem,xxx,Self,cercle,881.0,i,mismatch,True
sx9kmgaj4y,236.0,Eminem,xxx,Stranger,carré,747.0,i,mismatch,True
sx9kmgaj4y,237.0,Eminem,xxx,Self,carré,551.0,e,match,True
sx9kmgaj4y,238.0,Eminem,xxx,Friend,carré,411.0,e,match,False
sx9kmgaj4y,239.0,Eminem,xxx,Self,carré,547.0,e,match,True
sx9kmgaj4y,240.0,Eminem,xxx,Friend,cercle,941.0,e,match,True
sx9kmgaj4y,241.0,Eminem,xxx,Friend,carré,783.0,i,mismatch,True
sx9kmgaj4y,242.0,Eminem,xxx,Self,carré,839.0,e,match,True
sx9kmgaj4y,243.0,Eminem,xxx,Self,carré,619.0,e,match,True
sx9kmgaj4y,244.0,Eminem,xxx,Friend,triangle,547.0,i,mismatch,True
sx9kmgaj4y,245.0,Eminem,xxx,Stranger,cercle,947.0,i,mismatch,True
sx9kmgaj4y,246.0,Eminem,xxx,Stranger,cercle,663.0,i,mismatch,True
sx9kmgaj4y,247.0,Eminem,xxx,Stranger,carré,731.0,i,mismatch,True
sx9kmgaj4y,248.0,Eminem,xxx,Self,cercle,795.0,i,mismatch,True
sx9kmgaj4y,249.0,Eminem,xxx,Stranger,carré,751.0,i,mismatch,True
sx9kmgaj4y,250.0,Eminem,xxx,Self,triangle,569.0,i,mismatch,True
sx9kmgaj4y,251.0,Eminem,xxx,Self,cercle,750.0,i,mismatch,True
sx9kmgaj4y,252.0,Eminem,xxx,Friend,triangle,620.0,i,mismatch,True
sx9kmgaj4y,253.0,Eminem,xxx,Self,triangle,597.0,i,mismatch,True
sx9kmgaj4y,254.0,Eminem,xxx,Self,cercle,1132.0,i,mismatch,True
sx9kmgaj4y,255.0,Eminem,xxx,Self,cercle,537.0,i,mismatch,True
sx9kmgaj4y,256.0,Eminem,xxx,Self,carré,787.0,i,mismatch,False
sx9kmgaj4y,257.0,Eminem,xxx,Friend,carré,553.0,i,mismatch,True
sx9kmgaj4y,258.0,Eminem,xxx,Stranger,triangle,875.0,e,match,True
sx9kmgaj4y,259.0,Eminem,xxx,Stranger,carré,614.0,i,mismatch,True
sx9kmgaj4y,260.0,Eminem,xxx,Friend,carré,503.0,i,mismatch,True
