Participant,Trial,Label_Stranger,Label_Friend,Label_Condition,Shape,RT,Response,Answer,Correct
6n6ab83d1c,1.0,Pink,Mariam,Stranger,triangle,,,,False
6n6ab83d1c,2.0,Pink,Mariam,Self,circle,,,,False
6n6ab83d1c,3.0,Pink,Mariam,Self,square,,,,False
6n6ab83d1c,4.0,Pink,Mariam,Stranger,triangle,,,,False
6n6ab83d1c,5.0,Pink,Mariam,Stranger,circle,2496.0,e,mismatch,True
6n6ab83d1c,6.0,Pink,Mariam,Self,triangle,2144.0,i,match,False
6n6ab83d1c,7.0,Pink,Mariam,Friend,square,3206.0,e,mismatch,False
6n6ab83d1c,8.0,Pink,Mariam,Self,circle,3559.0,i,match,True
6n6ab83d1c,9.0,Pink,Mariam,Stranger,triangle,2684.0,i,match,True
6n6ab83d1c,10.0,Pink,Mariam,Self,triangle,1883.0,i,match,False
6n6ab83d1c,11.0,Pink,Mariam,Stranger,triangle,1126.0,i,match,True
6n6ab83d1c,12.0,Pink,Mariam,Self,triangle,1611.0,e,mismatch,True
6n6ab83d1c,13.0,Pink,Mariam,Friend,square,1796.0,i,match,True
6n6ab83d1c,14.0,Pink,Mariam,Friend,circle,1698.0,e,mismatch,True
6n6ab83d1c,15.0,Pink,Mariam,Friend,circle,2554.0,e,mismatch,True
6n6ab83d1c,16.0,Pink,Mariam,Self,triangle,1200.0,e,mismatch,True
6n6ab83d1c,17.0,Pink,Mariam,Stranger,triangle,1800.0,i,match,True
6n6ab83d1c,18.0,Pink,Mariam,Stranger,circle,3616.0,e,mismatch,True
6n6ab83d1c,19.0,Pink,Mariam,Self,circle,1091.0,e,mismatch,False
6n6ab83d1c,20.0,Pink,Mariam,Stranger,square,2406.0,i,match,False
6n6ab83d1c,21.0,Pink,Mariam,Stranger,square,2861.0,e,mismatch,True
6n6ab83d1c,22.0,Pink,Mariam,Stranger,square,1125.0,e,mismatch,True
6n6ab83d1c,23.0,Pink,Mariam,Self,square,2132.0,i,match,False
6n6ab83d1c,24.0,Pink,Mariam,Self,circle,1862.0,e,mismatch,False
6n6ab83d1c,25.0,Pink,Mariam,Stranger,triangle,3052.0,i,match,True
6n6ab83d1c,26.0,Pink,Mariam,Stranger,circle,1716.0,e,mismatch,True
6n6ab83d1c,27.0,Pink,Mariam,Stranger,triangle,2890.0,i,match,True
6n6ab83d1c,28.0,Pink,Mariam,Self,circle,1736.0,i,match,True
6n6ab83d1c,29.0,Pink,Mariam,Friend,square,1012.0,i,match,True
6n6ab83d1c,30.0,Pink,Mariam,Self,circle,914.0,i,match,True
6n6ab83d1c,31.0,Pink,Mariam,Friend,circle,1704.0,e,mismatch,True
6n6ab83d1c,32.0,Pink,Mariam,Stranger,triangle,1722.0,i,match,True
6n6ab83d1c,33.0,Pink,Mariam,Self,circle,1157.0,i,match,True
6n6ab83d1c,34.0,Pink,Mariam,Friend,square,607.0,i,match,True
6n6ab83d1c,35.0,Pink,Mariam,Friend,circle,1218.0,e,mismatch,True
6n6ab83d1c,36.0,Pink,Mariam,Stranger,square,2126.0,e,mismatch,True
6n6ab83d1c,37.0,Pink,Mariam,Self,circle,795.0,i,match,True
6n6ab83d1c,38.0,Pink,Mariam,Stranger,circle,1072.0,e,mismatch,True
6n6ab83d1c,39.0,Pink,Mariam,Stranger,circle,923.0,e,mismatch,True
6n6ab83d1c,40.0,Pink,Mariam,Self,square,1444.0,e,mismatch,True
6n6ab83d1c,41.0,Pink,Mariam,Stranger,triangle,1094.0,e,mismatch,False
6n6ab83d1c,42.0,Pink,Mariam,Friend,triangle,1703.0,e,mismatch,True
6n6ab83d1c,43.0,Pink,Mariam,Friend,square,1509.0,i,match,True
6n6ab83d1c,44.0,Pink,Mariam,Self,square,807.0,e,mismatch,True
6n6ab83d1c,45.0,Pink,Mariam,Friend,circle,1590.0,e,mismatch,True
6n6ab83d1c,46.0,Pink,Mariam,Friend,circle,893.0,e,mismatch,True
6n6ab83d1c,47.0,Pink,Mariam,Self,circle,853.0,i,match,True
6n6ab83d1c,48.0,Pink,Mariam,Friend,triangle,1533.0,e,mismatch,True
6n6ab83d1c,49.0,Pink,Mariam,Friend,square,2457.0,i,match,True
6n6ab83d1c,50.0,Pink,Mariam,Self,square,1527.0,e,mismatch,True
6n6ab83d1c,51.0,Pink,Mariam,Friend,circle,1844.0,e,mismatch,True
6n6ab83d1c,52.0,Pink,Mariam,Stranger,circle,867.0,e,mismatch,True
6n6ab83d1c,53.0,Pink,Mariam,Stranger,square,1993.0,e,mismatch,True
6n6ab83d1c,54.0,Pink,Mariam,Friend,circle,1499.0,e,mismatch,True
6n6ab83d1c,55.0,Pink,Mariam,Self,square,1833.0,e,mismatch,True
6n6ab83d1c,56.0,Pink,Mariam,Stranger,circle,1969.0,e,mismatch,True
6n6ab83d1c,57.0,Pink,Mariam,Friend,square,1162.0,i,match,True
6n6ab83d1c,58.0,Pink,Mariam,Self,triangle,1188.0,e,mismatch,True
6n6ab83d1c,59.0,Pink,Mariam,Self,triangle,962.0,e,mismatch,True
6n6ab83d1c,60.0,Pink,Mariam,Stranger,triangle,1136.0,i,match,True
6n6ab83d1c,61.0,Pink,Mariam,Friend,circle,1865.0,e,mismatch,True
6n6ab83d1c,62.0,Pink,Mariam,Friend,triangle,2023.0,e,mismatch,True
6n6ab83d1c,63.0,Pink,Mariam,Self,square,1932.0,e,mismatch,True
6n6ab83d1c,64.0,Pink,Mariam,Friend,triangle,1162.0,e,mismatch,True
6n6ab83d1c,65.0,Pink,Mariam,Self,triangle,1617.0,e,mismatch,True
6n6ab83d1c,66.0,Pink,Mariam,Friend,square,1402.0,i,match,True
6n6ab83d1c,67.0,Pink,Mariam,Stranger,triangle,1783.0,i,match,True
6n6ab83d1c,68.0,Pink,Mariam,Self,square,1674.0,e,mismatch,True
6n6ab83d1c,69.0,Pink,Mariam,Stranger,circle,2033.0,e,mismatch,True
6n6ab83d1c,70.0,Pink,Mariam,Self,circle,1190.0,i,match,True
6n6ab83d1c,71.0,Pink,Mariam,Self,circle,880.0,i,match,True
6n6ab83d1c,72.0,Pink,Mariam,Stranger,triangle,721.0,e,mismatch,False
6n6ab83d1c,73.0,Pink,Mariam,Friend,circle,1681.0,e,mismatch,True
6n6ab83d1c,74.0,Pink,Mariam,Stranger,square,1616.0,e,mismatch,True
6n6ab83d1c,75.0,Pink,Mariam,Stranger,square,923.0,e,mismatch,True
6n6ab83d1c,76.0,Pink,Mariam,Friend,circle,1639.0,e,mismatch,True
6n6ab83d1c,77.0,Pink,Mariam,Stranger,circle,3049.0,e,mismatch,True
6n6ab83d1c,78.0,Pink,Mariam,Friend,square,1563.0,i,match,True
6n6ab83d1c,79.0,Pink,Mariam,Stranger,triangle,1592.0,i,match,True
6n6ab83d1c,80.0,Pink,Mariam,Stranger,circle,1341.0,e,mismatch,True
6n6ab83d1c,81.0,Pink,Mariam,Self,triangle,1996.0,e,mismatch,True
6n6ab83d1c,82.0,Pink,Mariam,Stranger,square,1386.0,e,mismatch,True
6n6ab83d1c,83.0,Pink,Mariam,Self,triangle,1357.0,e,mismatch,True
6n6ab83d1c,84.0,Pink,Mariam,Stranger,circle,887.0,e,mismatch,True
6n6ab83d1c,85.0,Pink,Mariam,Friend,square,988.0,i,match,True
6n6ab83d1c,86.0,Pink,Mariam,Stranger,square,2477.0,e,mismatch,True
6n6ab83d1c,87.0,Pink,Mariam,Self,square,1726.0,i,match,False
6n6ab83d1c,88.0,Pink,Mariam,Stranger,circle,2061.0,e,mismatch,True
6n6ab83d1c,89.0,Pink,Mariam,Friend,circle,1523.0,e,mismatch,True
6n6ab83d1c,90.0,Pink,Mariam,Friend,square,801.0,i,match,True
6n6ab83d1c,91.0,Pink,Mariam,Stranger,triangle,982.0,i,match,True
6n6ab83d1c,92.0,Pink,Mariam,Self,triangle,1023.0,e,mismatch,True
6n6ab83d1c,93.0,Pink,Mariam,Friend,square,909.0,i,match,True
6n6ab83d1c,94.0,Pink,Mariam,Self,circle,889.0,i,match,True
6n6ab83d1c,95.0,Pink,Mariam,Friend,circle,898.0,e,mismatch,True
6n6ab83d1c,96.0,Pink,Mariam,Stranger,triangle,1642.0,i,match,True
6n6ab83d1c,97.0,Pink,Mariam,Friend,circle,1424.0,e,mismatch,True
6n6ab83d1c,98.0,Pink,Mariam,Stranger,square,1670.0,e,mismatch,True
6n6ab83d1c,99.0,Pink,Mariam,Friend,triangle,1443.0,e,mismatch,True
6n6ab83d1c,100.0,Pink,Mariam,Friend,triangle,1257.0,e,mismatch,True
6n6ab83d1c,101.0,Pink,Mariam,Self,circle,881.0,i,match,True
6n6ab83d1c,102.0,Pink,Mariam,Friend,square,597.0,i,match,True
6n6ab83d1c,103.0,Pink,Mariam,Stranger,circle,702.0,e,mismatch,True
6n6ab83d1c,104.0,Pink,Mariam,Friend,square,1077.0,e,mismatch,False
6n6ab83d1c,105.0,Pink,Mariam,Friend,circle,1902.0,e,mismatch,True
6n6ab83d1c,106.0,Pink,Mariam,Stranger,circle,973.0,e,mismatch,True
6n6ab83d1c,107.0,Pink,Mariam,Stranger,triangle,953.0,i,match,True
6n6ab83d1c,108.0,Pink,Mariam,Friend,square,957.0,i,match,True
6n6ab83d1c,109.0,Pink,Mariam,Self,triangle,888.0,e,mismatch,True
6n6ab83d1c,110.0,Pink,Mariam,Stranger,square,1595.0,e,mismatch,True
6n6ab83d1c,111.0,Pink,Mariam,Stranger,triangle,936.0,i,match,True
6n6ab83d1c,112.0,Pink,Mariam,Stranger,triangle,938.0,i,match,True
6n6ab83d1c,113.0,Pink,Mariam,Stranger,square,722.0,e,mismatch,True
6n6ab83d1c,114.0,Pink,Mariam,Friend,circle,1376.0,e,mismatch,True
6n6ab83d1c,115.0,Pink,Mariam,Self,triangle,1146.0,e,mismatch,True
6n6ab83d1c,116.0,Pink,Mariam,Stranger,triangle,983.0,i,match,True
6n6ab83d1c,117.0,Pink,Mariam,Self,triangle,978.0,e,mismatch,True
6n6ab83d1c,118.0,Pink,Mariam,Self,square,834.0,i,match,False
6n6ab83d1c,119.0,Pink,Mariam,Self,triangle,1543.0,e,mismatch,True
6n6ab83d1c,120.0,Pink,Mariam,Stranger,triangle,1384.0,i,match,True
6n6ab83d1c,121.0,Pink,Mariam,Friend,square,1129.0,i,match,True
6n6ab83d1c,122.0,Pink,Mariam,Friend,triangle,846.0,e,mismatch,True
6n6ab83d1c,123.0,Pink,Mariam,Stranger,circle,1198.0,e,mismatch,True
6n6ab83d1c,124.0,Pink,Mariam,Self,square,1525.0,e,mismatch,True
6n6ab83d1c,125.0,Pink,Mariam,Friend,triangle,967.0,e,mismatch,True
6n6ab83d1c,126.0,Pink,Mariam,Self,circle,1045.0,i,match,True
6n6ab83d1c,127.0,Pink,Mariam,Friend,circle,823.0,i,match,False
6n6ab83d1c,128.0,Pink,Mariam,Self,square,1044.0,i,match,False
6n6ab83d1c,129.0,Pink,Mariam,Stranger,circle,711.0,e,mismatch,True
6n6ab83d1c,130.0,Pink,Mariam,Stranger,square,928.0,e,mismatch,True
6n6ab83d1c,131.0,Pink,Mariam,Self,square,1756.0,e,mismatch,True
6n6ab83d1c,132.0,Pink,Mariam,Friend,triangle,1055.0,e,mismatch,True
6n6ab83d1c,133.0,Pink,Mariam,Self,square,1368.0,e,mismatch,True
6n6ab83d1c,134.0,Pink,Mariam,Self,triangle,850.0,e,mismatch,True
6n6ab83d1c,135.0,Pink,Mariam,Self,triangle,867.0,e,mismatch,True
6n6ab83d1c,136.0,Pink,Mariam,Stranger,circle,846.0,e,mismatch,True
6n6ab83d1c,137.0,Pink,Mariam,Self,triangle,820.0,e,mismatch,True
6n6ab83d1c,138.0,Pink,Mariam,Friend,triangle,1043.0,e,mismatch,True
6n6ab83d1c,139.0,Pink,Mariam,Self,triangle,840.0,e,mismatch,True
6n6ab83d1c,140.0,Pink,Mariam,Stranger,square,1145.0,e,mismatch,True
6n6ab83d1c,141.0,Pink,Mariam,Self,circle,1180.0,i,match,True
6n6ab83d1c,142.0,Pink,Mariam,Self,circle,1068.0,i,match,True
6n6ab83d1c,143.0,Pink,Mariam,Stranger,triangle,1111.0,i,match,True
6n6ab83d1c,144.0,Pink,Mariam,Stranger,triangle,774.0,i,match,True
6n6ab83d1c,145.0,Pink,Mariam,Friend,circle,872.0,i,match,False
6n6ab83d1c,146.0,Pink,Mariam,Stranger,square,869.0,e,mismatch,True
6n6ab83d1c,147.0,Pink,Mariam,Stranger,triangle,1471.0,i,match,True
6n6ab83d1c,148.0,Pink,Mariam,Self,triangle,797.0,e,mismatch,True
6n6ab83d1c,149.0,Pink,Mariam,Friend,square,1815.0,i,match,True
6n6ab83d1c,150.0,Pink,Mariam,Self,square,909.0,e,mismatch,True
6n6ab83d1c,151.0,Pink,Mariam,Self,circle,1419.0,i,match,True
6n6ab83d1c,152.0,Pink,Mariam,Stranger,circle,855.0,e,mismatch,True
6n6ab83d1c,153.0,Pink,Mariam,Self,triangle,1373.0,e,mismatch,True
6n6ab83d1c,154.0,Pink,Mariam,Self,triangle,1447.0,e,mismatch,True
6n6ab83d1c,155.0,Pink,Mariam,Self,square,1530.0,e,mismatch,True
6n6ab83d1c,156.0,Pink,Mariam,Friend,triangle,1408.0,e,mismatch,True
6n6ab83d1c,157.0,Pink,Mariam,Self,triangle,991.0,e,mismatch,True
6n6ab83d1c,158.0,Pink,Mariam,Stranger,circle,1338.0,e,mismatch,True
6n6ab83d1c,159.0,Pink,Mariam,Friend,triangle,936.0,e,mismatch,True
6n6ab83d1c,160.0,Pink,Mariam,Stranger,square,848.0,e,mismatch,True
6n6ab83d1c,161.0,Pink,Mariam,Self,triangle,902.0,e,mismatch,True
6n6ab83d1c,162.0,Pink,Mariam,Self,circle,818.0,i,match,True
6n6ab83d1c,163.0,Pink,Mariam,Self,square,833.0,e,mismatch,True
6n6ab83d1c,164.0,Pink,Mariam,Friend,triangle,1084.0,e,mismatch,True
6n6ab83d1c,165.0,Pink,Mariam,Friend,square,892.0,i,match,True
6n6ab83d1c,166.0,Pink,Mariam,Friend,circle,705.0,e,mismatch,True
6n6ab83d1c,167.0,Pink,Mariam,Friend,triangle,716.0,e,mismatch,True
6n6ab83d1c,168.0,Pink,Mariam,Self,circle,954.0,i,match,True
6n6ab83d1c,169.0,Pink,Mariam,Self,square,779.0,e,mismatch,True
6n6ab83d1c,170.0,Pink,Mariam,Self,square,1466.0,e,mismatch,True
6n6ab83d1c,171.0,Pink,Mariam,Friend,triangle,770.0,e,mismatch,True
6n6ab83d1c,172.0,Pink,Mariam,Friend,triangle,787.0,e,mismatch,True
6n6ab83d1c,173.0,Pink,Mariam,Self,square,1469.0,e,mismatch,True
6n6ab83d1c,174.0,Pink,Mariam,Friend,square,1016.0,i,match,True
6n6ab83d1c,175.0,Pink,Mariam,Self,triangle,873.0,e,mismatch,True
6n6ab83d1c,176.0,Pink,Mariam,Self,square,1917.0,e,mismatch,True
6n6ab83d1c,177.0,Pink,Mariam,Stranger,triangle,708.0,e,mismatch,False
6n6ab83d1c,178.0,Pink,Mariam,Stranger,circle,1083.0,e,mismatch,True
6n6ab83d1c,179.0,Pink,Mariam,Stranger,square,642.0,e,mismatch,True
6n6ab83d1c,180.0,Pink,Mariam,Self,triangle,919.0,e,mismatch,True
6n6ab83d1c,181.0,Pink,Mariam,Friend,square,1045.0,i,match,True
6n6ab83d1c,182.0,Pink,Mariam,Friend,triangle,1008.0,e,mismatch,True
6n6ab83d1c,183.0,Pink,Mariam,Stranger,circle,1625.0,e,mismatch,True
6n6ab83d1c,184.0,Pink,Mariam,Friend,circle,1669.0,e,mismatch,True
6n6ab83d1c,185.0,Pink,Mariam,Self,square,1357.0,e,mismatch,True
6n6ab83d1c,186.0,Pink,Mariam,Friend,circle,868.0,i,match,False
6n6ab83d1c,187.0,Pink,Mariam,Self,circle,1036.0,i,match,True
6n6ab83d1c,188.0,Pink,Mariam,Stranger,square,637.0,e,mismatch,True
6n6ab83d1c,189.0,Pink,Mariam,Self,circle,2214.0,i,match,True
6n6ab83d1c,190.0,Pink,Mariam,Self,triangle,922.0,e,mismatch,True
6n6ab83d1c,191.0,Pink,Mariam,Friend,circle,998.0,i,match,False
6n6ab83d1c,192.0,Pink,Mariam,Stranger,square,974.0,e,mismatch,True
6n6ab83d1c,193.0,Pink,Mariam,Self,triangle,861.0,e,mismatch,True
6n6ab83d1c,194.0,Pink,Mariam,Self,square,2099.0,e,mismatch,True
6n6ab83d1c,195.0,Pink,Mariam,Self,square,885.0,e,mismatch,True
6n6ab83d1c,196.0,Pink,Mariam,Self,circle,1190.0,i,match,True
6n6ab83d1c,197.0,Pink,Mariam,Stranger,circle,785.0,e,mismatch,True
6n6ab83d1c,198.0,Pink,Mariam,Stranger,square,763.0,e,mismatch,True
6n6ab83d1c,199.0,Pink,Mariam,Friend,triangle,1008.0,e,mismatch,True
6n6ab83d1c,200.0,Pink,Mariam,Self,square,1556.0,e,mismatch,True
6n6ab83d1c,201.0,Pink,Mariam,Self,circle,875.0,i,match,True
6n6ab83d1c,202.0,Pink,Mariam,Self,triangle,842.0,e,mismatch,True
6n6ab83d1c,203.0,Pink,Mariam,Stranger,square,840.0,e,mismatch,True
6n6ab83d1c,204.0,Pink,Mariam,Self,triangle,757.0,e,mismatch,True
6n6ab83d1c,205.0,Pink,Mariam,Friend,triangle,1199.0,e,mismatch,True
6n6ab83d1c,206.0,Pink,Mariam,Friend,circle,1743.0,e,mismatch,True
6n6ab83d1c,207.0,Pink,Mariam,Stranger,triangle,1122.0,i,match,True
6n6ab83d1c,208.0,Pink,Mariam,Friend,triangle,826.0,e,mismatch,True
6n6ab83d1c,209.0,Pink,Mariam,Stranger,square,1142.0,e,mismatch,True
6n6ab83d1c,210.0,Pink,Mariam,Friend,square,862.0,i,match,True
6n6ab83d1c,211.0,Pink,Mariam,Friend,square,884.0,i,match,True
6n6ab83d1c,212.0,Pink,Mariam,Friend,circle,798.0,e,mismatch,True
6n6ab83d1c,213.0,Pink,Mariam,Stranger,circle,989.0,e,mismatch,True
6n6ab83d1c,214.0,Pink,Mariam,Self,square,1143.0,e,mismatch,True
6n6ab83d1c,215.0,Pink,Mariam,Stranger,square,882.0,e,mismatch,True
6n6ab83d1c,216.0,Pink,Mariam,Stranger,circle,831.0,e,mismatch,True
6n6ab83d1c,217.0,Pink,Mariam,Friend,triangle,919.0,e,mismatch,True
6n6ab83d1c,218.0,Pink,Mariam,Stranger,circle,840.0,e,mismatch,True
6n6ab83d1c,219.0,Pink,Mariam,Stranger,triangle,696.0,i,match,True
6n6ab83d1c,220.0,Pink,Mariam,Friend,circle,781.0,e,mismatch,True
6n6ab83d1c,221.0,Pink,Mariam,Self,circle,907.0,e,mismatch,False
6n6ab83d1c,222.0,Pink,Mariam,Friend,square,809.0,i,match,True
6n6ab83d1c,223.0,Pink,Mariam,Stranger,triangle,829.0,i,match,True
6n6ab83d1c,224.0,Pink,Mariam,Friend,circle,1578.0,e,mismatch,True
6n6ab83d1c,225.0,Pink,Mariam,Self,square,1172.0,i,match,False
6n6ab83d1c,226.0,Pink,Mariam,Friend,square,1117.0,i,match,True
6n6ab83d1c,227.0,Pink,Mariam,Friend,circle,714.0,e,mismatch,True
6n6ab83d1c,228.0,Pink,Mariam,Stranger,circle,1115.0,e,mismatch,True
6n6ab83d1c,229.0,Pink,Mariam,Stranger,square,1056.0,e,mismatch,True
6n6ab83d1c,230.0,Pink,Mariam,Stranger,square,948.0,e,mismatch,True
6n6ab83d1c,231.0,Pink,Mariam,Friend,square,1144.0,i,match,True
6n6ab83d1c,232.0,Pink,Mariam,Stranger,square,812.0,e,mismatch,True
6n6ab83d1c,233.0,Pink,Mariam,Friend,triangle,747.0,e,mismatch,True
6n6ab83d1c,234.0,Pink,Mariam,Friend,triangle,1403.0,e,mismatch,True
6n6ab83d1c,235.0,Pink,Mariam,Stranger,triangle,1095.0,i,match,True
6n6ab83d1c,236.0,Pink,Mariam,Self,square,888.0,i,match,False
6n6ab83d1c,237.0,Pink,Mariam,Stranger,triangle,935.0,i,match,True
6n6ab83d1c,238.0,Pink,Mariam,Friend,triangle,963.0,e,mismatch,True
6n6ab83d1c,239.0,Pink,Mariam,Self,circle,866.0,i,match,True
6n6ab83d1c,240.0,Pink,Mariam,Friend,circle,698.0,e,mismatch,True
6n6ab83d1c,241.0,Pink,Mariam,Stranger,circle,1064.0,e,mismatch,True
6n6ab83d1c,242.0,Pink,Mariam,Self,circle,1507.0,i,match,True
6n6ab83d1c,243.0,Pink,Mariam,Stranger,triangle,785.0,i,match,True
6n6ab83d1c,244.0,Pink,Mariam,Friend,triangle,871.0,e,mismatch,True
6n6ab83d1c,245.0,Pink,Mariam,Stranger,square,798.0,e,mismatch,True
6n6ab83d1c,246.0,Pink,Mariam,Friend,circle,808.0,e,mismatch,True
6n6ab83d1c,247.0,Pink,Mariam,Friend,triangle,806.0,e,mismatch,True
6n6ab83d1c,248.0,Pink,Mariam,Friend,square,765.0,i,match,True
6n6ab83d1c,249.0,Pink,Mariam,Friend,circle,817.0,e,mismatch,True
6n6ab83d1c,250.0,Pink,Mariam,Self,triangle,1405.0,e,mismatch,True
6n6ab83d1c,251.0,Pink,Mariam,Stranger,square,1332.0,e,mismatch,True
6n6ab83d1c,252.0,Pink,Mariam,Self,circle,889.0,i,match,True
6n6ab83d1c,253.0,Pink,Mariam,Self,triangle,908.0,e,mismatch,True
6n6ab83d1c,254.0,Pink,Mariam,Self,square,2179.0,e,mismatch,True
6n6ab83d1c,255.0,Pink,Mariam,Friend,triangle,861.0,e,mismatch,True
6n6ab83d1c,256.0,Pink,Mariam,Stranger,square,873.0,e,mismatch,True
6n6ab83d1c,257.0,Pink,Mariam,Self,square,1850.0,e,mismatch,True
6n6ab83d1c,258.0,Pink,Mariam,Self,triangle,760.0,e,mismatch,True
6n6ab83d1c,259.0,Pink,Mariam,Stranger,square,963.0,e,mismatch,True
6n6ab83d1c,260.0,Pink,Mariam,Stranger,circle,997.0,e,mismatch,True
6n6ab83d1c,261.0,Pink,Mariam,Self,circle,830.0,i,match,True
6n6ab83d1c,262.0,Pink,Mariam,Friend,square,1029.0,i,match,True
6n6ab83d1c,263.0,Pink,Mariam,Friend,square,661.0,e,mismatch,False
6n6ab83d1c,264.0,Pink,Mariam,Friend,square,702.0,i,match,True
6n6ab83d1c,265.0,Pink,Mariam,Stranger,square,739.0,e,mismatch,True
6n6ab83d1c,266.0,Pink,Mariam,Stranger,circle,1616.0,e,mismatch,True
6n6ab83d1c,267.0,Pink,Mariam,Stranger,square,878.0,e,mismatch,True
6n6ab83d1c,268.0,Pink,Mariam,Friend,square,896.0,i,match,True
6n6ab83d1c,269.0,Pink,Mariam,Self,circle,1122.0,i,match,True
6n6ab83d1c,270.0,Pink,Mariam,Stranger,circle,815.0,e,mismatch,True
6n6ab83d1c,271.0,Pink,Mariam,Friend,square,1857.0,i,match,True
6n6ab83d1c,272.0,Pink,Mariam,Self,circle,1218.0,i,match,True
6n6ab83d1c,273.0,Pink,Mariam,Friend,circle,869.0,e,mismatch,True
6n6ab83d1c,274.0,Pink,Mariam,Friend,circle,877.0,e,mismatch,True
6n6ab83d1c,275.0,Pink,Mariam,Friend,triangle,793.0,e,mismatch,True
6n6ab83d1c,276.0,Pink,Mariam,Stranger,triangle,792.0,i,match,True
6n6ab83d1c,277.0,Pink,Mariam,Friend,triangle,854.0,e,mismatch,True
6n6ab83d1c,278.0,Pink,Mariam,Self,circle,811.0,i,match,True
6n6ab83d1c,279.0,Pink,Mariam,Friend,square,785.0,i,match,True
6n6ab83d1c,280.0,Pink,Mariam,Friend,square,600.0,i,match,True
6n6ab83d1c,281.0,Pink,Mariam,Friend,circle,798.0,e,mismatch,True
6n6ab83d1c,282.0,Pink,Mariam,Self,square,1130.0,e,mismatch,True
6n6ab83d1c,283.0,Pink,Mariam,Friend,triangle,885.0,e,mismatch,True
6n6ab83d1c,284.0,Pink,Mariam,Stranger,square,903.0,e,mismatch,True
6n6ab83d1c,285.0,Pink,Mariam,Friend,triangle,877.0,e,mismatch,True
6n6ab83d1c,286.0,Pink,Mariam,Self,square,991.0,e,mismatch,True
6n6ab83d1c,287.0,Pink,Mariam,Friend,triangle,757.0,e,mismatch,True
6n6ab83d1c,288.0,Pink,Mariam,Self,circle,805.0,i,match,True
6n6ab83d1c,289.0,Pink,Mariam,Friend,triangle,797.0,e,mismatch,True
6n6ab83d1c,290.0,Pink,Mariam,Stranger,triangle,1171.0,i,match,True
6n6ab83d1c,291.0,Pink,Mariam,Stranger,square,874.0,e,mismatch,True
6n6ab83d1c,292.0,Pink,Mariam,Self,square,1505.0,e,mismatch,True
6n6ab83d1c,293.0,Pink,Mariam,Stranger,circle,1507.0,e,mismatch,True
6n6ab83d1c,294.0,Pink,Mariam,Stranger,triangle,673.0,e,mismatch,False
6n6ab83d1c,295.0,Pink,Mariam,Self,square,987.0,i,match,False
6n6ab83d1c,296.0,Pink,Mariam,Self,square,2070.0,e,mismatch,True
6n6ab83d1c,297.0,Pink,Mariam,Self,triangle,843.0,e,mismatch,True
6n6ab83d1c,298.0,Pink,Mariam,Friend,circle,2237.0,e,mismatch,True
6n6ab83d1c,299.0,Pink,Mariam,Stranger,circle,868.0,e,mismatch,True
6n6ab83d1c,300.0,Pink,Mariam,Stranger,triangle,744.0,i,match,True
6n6ab83d1c,301.0,Pink,Mariam,Stranger,square,743.0,e,mismatch,True
6n6ab83d1c,302.0,Pink,Mariam,Stranger,circle,743.0,e,mismatch,True
6n6ab83d1c,303.0,Pink,Mariam,Friend,triangle,938.0,e,mismatch,True
6n6ab83d1c,304.0,Pink,Mariam,Stranger,triangle,1069.0,i,match,True
6n6ab83d1c,305.0,Pink,Mariam,Friend,square,1729.0,i,match,True
6n6ab83d1c,306.0,Pink,Mariam,Stranger,square,857.0,e,mismatch,True
6n6ab83d1c,307.0,Pink,Mariam,Friend,triangle,733.0,e,mismatch,True
6n6ab83d1c,308.0,Pink,Mariam,Stranger,circle,1019.0,e,mismatch,True
6n6ab83d1c,309.0,Pink,Mariam,Self,circle,878.0,i,match,True
6n6ab83d1c,310.0,Pink,Mariam,Friend,square,757.0,i,match,True
6n6ab83d1c,311.0,Pink,Mariam,Friend,circle,1608.0,e,mismatch,True
6n6ab83d1c,312.0,Pink,Mariam,Stranger,circle,913.0,e,mismatch,True
6n6ab83d1c,313.0,Pink,Mariam,Self,square,1256.0,e,mismatch,True
6n6ab83d1c,314.0,Pink,Mariam,Stranger,triangle,952.0,i,match,True
6n6ab83d1c,315.0,Pink,Mariam,Self,triangle,780.0,e,mismatch,True
6n6ab83d1c,316.0,Pink,Mariam,Self,triangle,765.0,e,mismatch,True
6n6ab83d1c,317.0,Pink,Mariam,Self,circle,1043.0,i,match,True
6n6ab83d1c,318.0,Pink,Mariam,Friend,circle,761.0,e,mismatch,True
6n6ab83d1c,319.0,Pink,Mariam,Stranger,circle,1113.0,e,mismatch,True
6n6ab83d1c,320.0,Pink,Mariam,Self,circle,788.0,e,mismatch,False
6n6ab83d1c,321.0,Pink,Mariam,Friend,square,889.0,i,match,True
6n6ab83d1c,322.0,Pink,Mariam,Self,circle,862.0,i,match,True
6n6ab83d1c,323.0,Pink,Mariam,Self,triangle,878.0,e,mismatch,True
6n6ab83d1c,324.0,Pink,Mariam,Friend,triangle,878.0,e,mismatch,True
lxmnawcu9z,1.0,Rihanna,Femke,Self,circle,,,,False
lxmnawcu9z,2.0,Rihanna,Femke,Self,triangle,,,,False
lxmnawcu9z,3.0,Rihanna,Femke,Friend,triangle,1179.0,i,match,False
lxmnawcu9z,4.0,Rihanna,Femke,Stranger,circle,1295.0,i,match,True
lxmnawcu9z,5.0,Rihanna,Femke,Stranger,circle,834.0,i,match,True
lxmnawcu9z,6.0,Rihanna,Femke,Self,square,1052.0,e,mismatch,True
lxmnawcu9z,7.0,Rihanna,Femke,Stranger,circle,1366.0,i,match,True
lxmnawcu9z,8.0,Rihanna,Femke,Friend,triangle,1046.0,e,mismatch,True
lxmnawcu9z,9.0,Rihanna,Femke,Stranger,square,942.0,i,match,False
lxmnawcu9z,10.0,Rihanna,Femke,Friend,triangle,,,,False
lxmnawcu9z,11.0,Rihanna,Femke,Stranger,triangle,915.0,i,match,False
lxmnawcu9z,12.0,Rihanna,Femke,Self,triangle,962.0,i,match,True
lxmnawcu9z,13.0,Rihanna,Femke,Self,square,1002.0,e,mismatch,True
lxmnawcu9z,14.0,Rihanna,Femke,Stranger,square,963.0,i,match,False
lxmnawcu9z,15.0,Rihanna,Femke,Stranger,circle,829.0,i,match,True
lxmnawcu9z,16.0,Rihanna,Femke,Stranger,triangle,1179.0,e,mismatch,True
lxmnawcu9z,17.0,Rihanna,Femke,Friend,circle,1089.0,e,mismatch,True
lxmnawcu9z,18.0,Rihanna,Femke,Self,triangle,1364.0,e,mismatch,False
lxmnawcu9z,19.0,Rihanna,Femke,Self,square,1034.0,e,mismatch,True
lxmnawcu9z,20.0,Rihanna,Femke,Friend,triangle,1157.0,i,match,False
lxmnawcu9z,21.0,Rihanna,Femke,Friend,square,1083.0,i,match,True
lxmnawcu9z,22.0,Rihanna,Femke,Self,circle,1222.0,i,match,False
lxmnawcu9z,23.0,Rihanna,Femke,Stranger,triangle,1165.0,i,match,False
lxmnawcu9z,24.0,Rihanna,Femke,Stranger,triangle,1124.0,i,match,False
lxmnawcu9z,25.0,Rihanna,Femke,Self,triangle,1030.0,i,match,True
lxmnawcu9z,26.0,Rihanna,Femke,Friend,circle,1192.0,i,match,False
lxmnawcu9z,27.0,Rihanna,Femke,Stranger,square,1065.0,i,match,False
lxmnawcu9z,28.0,Rihanna,Femke,Friend,triangle,,,,False
lxmnawcu9z,29.0,Rihanna,Femke,Self,square,2162.0,i,match,False
lxmnawcu9z,30.0,Rihanna,Femke,Friend,square,900.0,i,match,True
lxmnawcu9z,31.0,Rihanna,Femke,Stranger,square,1138.0,e,mismatch,True
lxmnawcu9z,32.0,Rihanna,Femke,Stranger,circle,1158.0,i,match,True
lxmnawcu9z,33.0,Rihanna,Femke,Self,triangle,1045.0,i,match,True
lxmnawcu9z,34.0,Rihanna,Femke,Self,circle,831.0,e,mismatch,True
lxmnawcu9z,35.0,Rihanna,Femke,Friend,triangle,874.0,i,match,False
lxmnawcu9z,36.0,Rihanna,Femke,Self,triangle,1088.0,i,match,True
lxmnawcu9z,37.0,Rihanna,Femke,Self,square,724.0,e,mismatch,True
lxmnawcu9z,38.0,Rihanna,Femke,Stranger,triangle,1112.0,i,match,False
lxmnawcu9z,39.0,Rihanna,Femke,Stranger,square,959.0,i,match,False
lxmnawcu9z,40.0,Rihanna,Femke,Friend,triangle,932.0,e,mismatch,True
lxmnawcu9z,41.0,Rihanna,Femke,Stranger,circle,904.0,i,match,True
lxmnawcu9z,42.0,Rihanna,Femke,Self,circle,871.0,e,mismatch,True
lxmnawcu9z,43.0,Rihanna,Femke,Friend,square,841.0,i,match,True
lxmnawcu9z,44.0,Rihanna,Femke,Self,circle,767.0,e,mismatch,True
lxmnawcu9z,45.0,Rihanna,Femke,Friend,square,868.0,i,match,True
lxmnawcu9z,46.0,Rihanna,Femke,Self,circle,766.0,e,mismatch,True
lxmnawcu9z,47.0,Rihanna,Femke,Friend,square,838.0,i,match,True
lxmnawcu9z,48.0,Rihanna,Femke,Friend,square,949.0,e,mismatch,False
lxmnawcu9z,49.0,Rihanna,Femke,Stranger,circle,983.0,i,match,True
lxmnawcu9z,50.0,Rihanna,Femke,Self,triangle,677.0,e,mismatch,False
lxmnawcu9z,51.0,Rihanna,Femke,Friend,square,1060.0,e,mismatch,False
lxmnawcu9z,52.0,Rihanna,Femke,Stranger,square,964.0,i,match,False
lxmnawcu9z,53.0,Rihanna,Femke,Stranger,circle,808.0,i,match,True
lxmnawcu9z,54.0,Rihanna,Femke,Friend,square,780.0,e,mismatch,False
lxmnawcu9z,55.0,Rihanna,Femke,Stranger,square,1301.0,e,mismatch,True
lxmnawcu9z,56.0,Rihanna,Femke,Stranger,circle,722.0,i,match,True
lxmnawcu9z,57.0,Rihanna,Femke,Friend,triangle,801.0,e,mismatch,True
lxmnawcu9z,58.0,Rihanna,Femke,Self,circle,1212.0,i,match,False
lxmnawcu9z,59.0,Rihanna,Femke,Self,square,750.0,i,match,False
lxmnawcu9z,60.0,Rihanna,Femke,Stranger,triangle,866.0,e,mismatch,True
lxmnawcu9z,61.0,Rihanna,Femke,Stranger,square,1033.0,i,match,False
lxmnawcu9z,62.0,Rihanna,Femke,Friend,circle,694.0,i,match,False
lxmnawcu9z,63.0,Rihanna,Femke,Friend,circle,750.0,i,match,False
lxmnawcu9z,64.0,Rihanna,Femke,Stranger,square,910.0,i,match,False
lxmnawcu9z,65.0,Rihanna,Femke,Friend,square,,,,False
lxmnawcu9z,66.0,Rihanna,Femke,Self,square,1013.0,e,mismatch,True
lxmnawcu9z,67.0,Rihanna,Femke,Friend,circle,1089.0,e,mismatch,True
lxmnawcu9z,68.0,Rihanna,Femke,Stranger,circle,977.0,i,match,True
lxmnawcu9z,69.0,Rihanna,Femke,Self,triangle,1157.0,i,match,True
lxmnawcu9z,70.0,Rihanna,Femke,Friend,circle,903.0,i,match,False
lxmnawcu9z,71.0,Rihanna,Femke,Self,triangle,955.0,i,match,True
lxmnawcu9z,72.0,Rihanna,Femke,Self,circle,792.0,e,mismatch,True
lxmnawcu9z,73.0,Rihanna,Femke,Stranger,square,1249.0,i,match,False
lxmnawcu9z,74.0,Rihanna,Femke,Self,square,1250.0,e,mismatch,True
lxmnawcu9z,75.0,Rihanna,Femke,Friend,square,777.0,e,mismatch,False
lxmnawcu9z,76.0,Rihanna,Femke,Stranger,circle,,,,False
lxmnawcu9z,77.0,Rihanna,Femke,Self,triangle,789.0,i,match,True
lxmnawcu9z,78.0,Rihanna,Femke,Friend,circle,965.0,i,match,False
lxmnawcu9z,79.0,Rihanna,Femke,Stranger,circle,971.0,i,match,True
lxmnawcu9z,80.0,Rihanna,Femke,Self,triangle,857.0,i,match,True
lxmnawcu9z,81.0,Rihanna,Femke,Self,triangle,1572.0,i,match,True
lxmnawcu9z,82.0,Rihanna,Femke,Friend,circle,883.0,e,mismatch,True
lxmnawcu9z,83.0,Rihanna,Femke,Friend,square,988.0,i,match,True
lxmnawcu9z,84.0,Rihanna,Femke,Self,triangle,1021.0,i,match,True
lxmnawcu9z,85.0,Rihanna,Femke,Friend,circle,1063.0,e,mismatch,True
lxmnawcu9z,86.0,Rihanna,Femke,Friend,triangle,985.0,i,match,False
lxmnawcu9z,87.0,Rihanna,Femke,Self,square,1224.0,e,mismatch,True
lxmnawcu9z,88.0,Rihanna,Femke,Self,square,905.0,e,mismatch,True
lxmnawcu9z,89.0,Rihanna,Femke,Stranger,square,984.0,i,match,False
lxmnawcu9z,90.0,Rihanna,Femke,Stranger,circle,693.0,i,match,True
lxmnawcu9z,91.0,Rihanna,Femke,Friend,circle,926.0,e,mismatch,True
lxmnawcu9z,92.0,Rihanna,Femke,Stranger,triangle,908.0,i,match,False
lxmnawcu9z,93.0,Rihanna,Femke,Stranger,square,1111.0,e,mismatch,True
lxmnawcu9z,94.0,Rihanna,Femke,Stranger,triangle,1011.0,e,mismatch,True
lxmnawcu9z,95.0,Rihanna,Femke,Friend,circle,847.0,e,mismatch,True
lxmnawcu9z,96.0,Rihanna,Femke,Friend,triangle,1222.0,i,match,False
lxmnawcu9z,97.0,Rihanna,Femke,Friend,triangle,1062.0,e,mismatch,True
lxmnawcu9z,98.0,Rihanna,Femke,Friend,triangle,860.0,e,mismatch,True
lxmnawcu9z,99.0,Rihanna,Femke,Stranger,triangle,765.0,i,match,False
lxmnawcu9z,100.0,Rihanna,Femke,Friend,circle,1106.0,e,mismatch,True
lxmnawcu9z,101.0,Rihanna,Femke,Friend,circle,942.0,e,mismatch,True
lxmnawcu9z,102.0,Rihanna,Femke,Self,square,962.0,e,mismatch,True
lxmnawcu9z,103.0,Rihanna,Femke,Self,circle,1023.0,e,mismatch,True
lxmnawcu9z,104.0,Rihanna,Femke,Stranger,circle,950.0,i,match,True
lxmnawcu9z,105.0,Rihanna,Femke,Friend,square,984.0,e,mismatch,False
lxmnawcu9z,106.0,Rihanna,Femke,Friend,square,1234.0,i,match,True
lxmnawcu9z,107.0,Rihanna,Femke,Stranger,circle,834.0,i,match,True
lxmnawcu9z,108.0,Rihanna,Femke,Self,square,980.0,e,mismatch,True
lxmnawcu9z,109.0,Rihanna,Femke,Friend,triangle,1202.0,i,match,False
lxmnawcu9z,110.0,Rihanna,Femke,Friend,triangle,941.0,e,mismatch,True
lxmnawcu9z,111.0,Rihanna,Femke,Friend,circle,1069.0,e,mismatch,True
lxmnawcu9z,112.0,Rihanna,Femke,Self,circle,1153.0,e,mismatch,True
lxmnawcu9z,113.0,Rihanna,Femke,Stranger,circle,810.0,i,match,True
lxmnawcu9z,114.0,Rihanna,Femke,Self,triangle,938.0,i,match,True
lxmnawcu9z,115.0,Rihanna,Femke,Friend,triangle,766.0,e,mismatch,True
lxmnawcu9z,116.0,Rihanna,Femke,Stranger,square,982.0,e,mismatch,True
lxmnawcu9z,117.0,Rihanna,Femke,Stranger,circle,840.0,i,match,True
lxmnawcu9z,118.0,Rihanna,Femke,Stranger,circle,1076.0,i,match,True
lxmnawcu9z,119.0,Rihanna,Femke,Self,square,951.0,e,mismatch,True
lxmnawcu9z,120.0,Rihanna,Femke,Self,triangle,847.0,i,match,True
lxmnawcu9z,121.0,Rihanna,Femke,Stranger,triangle,848.0,e,mismatch,True
lxmnawcu9z,122.0,Rihanna,Femke,Stranger,square,975.0,e,mismatch,True
lxmnawcu9z,123.0,Rihanna,Femke,Friend,square,995.0,i,match,True
lxmnawcu9z,124.0,Rihanna,Femke,Friend,circle,758.0,e,mismatch,True
lxmnawcu9z,125.0,Rihanna,Femke,Stranger,circle,789.0,i,match,True
lxmnawcu9z,126.0,Rihanna,Femke,Friend,circle,810.0,e,mismatch,True
lxmnawcu9z,127.0,Rihanna,Femke,Self,square,869.0,e,mismatch,True
lxmnawcu9z,128.0,Rihanna,Femke,Stranger,triangle,980.0,e,mismatch,True
lxmnawcu9z,129.0,Rihanna,Femke,Self,circle,917.0,e,mismatch,True
lxmnawcu9z,130.0,Rihanna,Femke,Stranger,circle,852.0,i,match,True
lxmnawcu9z,131.0,Rihanna,Femke,Stranger,circle,740.0,i,match,True
lxmnawcu9z,132.0,Rihanna,Femke,Stranger,triangle,863.0,e,mismatch,True
lxmnawcu9z,133.0,Rihanna,Femke,Stranger,triangle,816.0,e,mismatch,True
lxmnawcu9z,134.0,Rihanna,Femke,Self,circle,879.0,e,mismatch,True
lxmnawcu9z,135.0,Rihanna,Femke,Stranger,triangle,865.0,e,mismatch,True
lxmnawcu9z,136.0,Rihanna,Femke,Stranger,circle,719.0,i,match,True
lxmnawcu9z,137.0,Rihanna,Femke,Stranger,circle,749.0,i,match,True
lxmnawcu9z,138.0,Rihanna,Femke,Self,triangle,1059.0,i,match,True
lxmnawcu9z,139.0,Rihanna,Femke,Self,triangle,908.0,i,match,True
lxmnawcu9z,140.0,Rihanna,Femke,Stranger,square,917.0,e,mismatch,True
lxmnawcu9z,141.0,Rihanna,Femke,Friend,triangle,939.0,e,mismatch,True
lxmnawcu9z,142.0,Rihanna,Femke,Self,square,1272.0,i,match,False
lxmnawcu9z,143.0,Rihanna,Femke,Self,triangle,,,,False
lxmnawcu9z,144.0,Rihanna,Femke,Self,triangle,1057.0,i,match,True
lxmnawcu9z,145.0,Rihanna,Femke,Self,triangle,707.0,i,match,True
lxmnawcu9z,146.0,Rihanna,Femke,Friend,circle,740.0,e,mismatch,True
lxmnawcu9z,147.0,Rihanna,Femke,Friend,square,837.0,e,mismatch,False
lxmnawcu9z,148.0,Rihanna,Femke,Self,square,889.0,i,match,False
lxmnawcu9z,149.0,Rihanna,Femke,Self,circle,858.0,e,mismatch,True
lxmnawcu9z,150.0,Rihanna,Femke,Stranger,square,980.0,e,mismatch,True
lxmnawcu9z,151.0,Rihanna,Femke,Stranger,square,847.0,e,mismatch,True
lxmnawcu9z,152.0,Rihanna,Femke,Stranger,square,589.0,e,mismatch,True
lxmnawcu9z,153.0,Rihanna,Femke,Friend,circle,1016.0,e,mismatch,True
lxmnawcu9z,154.0,Rihanna,Femke,Friend,square,890.0,i,match,True
lxmnawcu9z,155.0,Rihanna,Femke,Friend,square,740.0,i,match,True
lxmnawcu9z,156.0,Rihanna,Femke,Friend,circle,708.0,e,mismatch,True
lxmnawcu9z,157.0,Rihanna,Femke,Stranger,circle,786.0,i,match,True
lxmnawcu9z,158.0,Rihanna,Femke,Stranger,triangle,765.0,e,mismatch,True
lxmnawcu9z,159.0,Rihanna,Femke,Stranger,square,1210.0,e,mismatch,True
lxmnawcu9z,160.0,Rihanna,Femke,Self,triangle,906.0,i,match,True
lxmnawcu9z,161.0,Rihanna,Femke,Friend,square,1088.0,i,match,True
lxmnawcu9z,162.0,Rihanna,Femke,Friend,square,801.0,i,match,True
lxmnawcu9z,163.0,Rihanna,Femke,Stranger,triangle,887.0,e,mismatch,True
lxmnawcu9z,164.0,Rihanna,Femke,Friend,circle,1214.0,e,mismatch,True
lxmnawcu9z,165.0,Rihanna,Femke,Friend,triangle,1743.0,e,mismatch,True
lxmnawcu9z,166.0,Rihanna,Femke,Friend,triangle,869.0,e,mismatch,True
lxmnawcu9z,167.0,Rihanna,Femke,Friend,circle,775.0,e,mismatch,True
lxmnawcu9z,168.0,Rihanna,Femke,Friend,square,877.0,i,match,True
lxmnawcu9z,169.0,Rihanna,Femke,Self,circle,929.0,e,mismatch,True
lxmnawcu9z,170.0,Rihanna,Femke,Friend,triangle,1008.0,e,mismatch,True
lxmnawcu9z,171.0,Rihanna,Femke,Friend,square,919.0,i,match,True
lxmnawcu9z,172.0,Rihanna,Femke,Self,triangle,952.0,i,match,True
lxmnawcu9z,173.0,Rihanna,Femke,Stranger,circle,774.0,i,match,True
lxmnawcu9z,174.0,Rihanna,Femke,Friend,circle,994.0,e,mismatch,True
lxmnawcu9z,175.0,Rihanna,Femke,Friend,square,793.0,i,match,True
lxmnawcu9z,176.0,Rihanna,Femke,Self,square,888.0,e,mismatch,True
lxmnawcu9z,177.0,Rihanna,Femke,Stranger,square,994.0,e,mismatch,True
lxmnawcu9z,178.0,Rihanna,Femke,Stranger,square,794.0,e,mismatch,True
lxmnawcu9z,179.0,Rihanna,Femke,Stranger,circle,738.0,i,match,True
lxmnawcu9z,180.0,Rihanna,Femke,Stranger,circle,952.0,i,match,True
lxmnawcu9z,181.0,Rihanna,Femke,Self,square,784.0,e,mismatch,True
lxmnawcu9z,182.0,Rihanna,Femke,Stranger,square,815.0,e,mismatch,True
lxmnawcu9z,183.0,Rihanna,Femke,Friend,triangle,1023.0,i,match,False
lxmnawcu9z,184.0,Rihanna,Femke,Stranger,triangle,1077.0,e,mismatch,True
lxmnawcu9z,185.0,Rihanna,Femke,Self,circle,805.0,e,mismatch,True
lxmnawcu9z,186.0,Rihanna,Femke,Stranger,square,891.0,e,mismatch,True
lxmnawcu9z,187.0,Rihanna,Femke,Friend,square,835.0,i,match,True
lxmnawcu9z,188.0,Rihanna,Femke,Self,circle,806.0,e,mismatch,True
lxmnawcu9z,189.0,Rihanna,Femke,Friend,triangle,2039.0,e,mismatch,True
lxmnawcu9z,190.0,Rihanna,Femke,Friend,triangle,903.0,e,mismatch,True
lxmnawcu9z,191.0,Rihanna,Femke,Friend,square,843.0,i,match,True
lxmnawcu9z,192.0,Rihanna,Femke,Stranger,triangle,812.0,e,mismatch,True
lxmnawcu9z,193.0,Rihanna,Femke,Self,circle,786.0,e,mismatch,True
lxmnawcu9z,194.0,Rihanna,Femke,Stranger,circle,665.0,i,match,True
lxmnawcu9z,195.0,Rihanna,Femke,Self,circle,680.0,e,mismatch,True
lxmnawcu9z,196.0,Rihanna,Femke,Stranger,triangle,813.0,e,mismatch,True
lxmnawcu9z,197.0,Rihanna,Femke,Self,square,780.0,e,mismatch,True
lxmnawcu9z,198.0,Rihanna,Femke,Self,triangle,830.0,i,match,True
lxmnawcu9z,199.0,Rihanna,Femke,Friend,square,1285.0,i,match,True
lxmnawcu9z,200.0,Rihanna,Femke,Self,square,893.0,e,mismatch,True
lxmnawcu9z,201.0,Rihanna,Femke,Friend,square,1145.0,i,match,True
lxmnawcu9z,202.0,Rihanna,Femke,Self,circle,873.0,e,mismatch,True
lxmnawcu9z,203.0,Rihanna,Femke,Friend,triangle,970.0,i,match,False
lxmnawcu9z,204.0,Rihanna,Femke,Stranger,square,,,,False
lxmnawcu9z,205.0,Rihanna,Femke,Self,triangle,955.0,i,match,True
lxmnawcu9z,206.0,Rihanna,Femke,Friend,square,988.0,i,match,True
lxmnawcu9z,207.0,Rihanna,Femke,Self,circle,1041.0,e,mismatch,True
lxmnawcu9z,208.0,Rihanna,Femke,Self,square,631.0,i,match,False
lxmnawcu9z,209.0,Rihanna,Femke,Friend,triangle,873.0,e,mismatch,True
lxmnawcu9z,210.0,Rihanna,Femke,Friend,triangle,834.0,e,mismatch,True
lxmnawcu9z,211.0,Rihanna,Femke,Self,square,822.0,e,mismatch,True
lxmnawcu9z,212.0,Rihanna,Femke,Friend,square,886.0,i,match,True
lxmnawcu9z,213.0,Rihanna,Femke,Friend,triangle,621.0,e,mismatch,True
lxmnawcu9z,214.0,Rihanna,Femke,Friend,square,746.0,i,match,True
lxmnawcu9z,215.0,Rihanna,Femke,Self,triangle,935.0,e,mismatch,False
lxmnawcu9z,216.0,Rihanna,Femke,Stranger,circle,828.0,i,match,True
lxmnawcu9z,217.0,Rihanna,Femke,Self,square,741.0,e,mismatch,True
lxmnawcu9z,218.0,Rihanna,Femke,Self,triangle,763.0,i,match,True
lxmnawcu9z,219.0,Rihanna,Femke,Friend,square,897.0,e,mismatch,False
lxmnawcu9z,220.0,Rihanna,Femke,Friend,triangle,1298.0,e,mismatch,True
lxmnawcu9z,221.0,Rihanna,Femke,Stranger,triangle,1075.0,e,mismatch,True
lxmnawcu9z,222.0,Rihanna,Femke,Stranger,square,768.0,e,mismatch,True
lxmnawcu9z,223.0,Rihanna,Femke,Stranger,square,697.0,e,mismatch,True
lxmnawcu9z,224.0,Rihanna,Femke,Stranger,square,687.0,e,mismatch,True
lxmnawcu9z,225.0,Rihanna,Femke,Self,circle,1046.0,e,mismatch,True
lxmnawcu9z,226.0,Rihanna,Femke,Stranger,circle,882.0,i,match,True
lxmnawcu9z,227.0,Rihanna,Femke,Stranger,triangle,917.0,e,mismatch,True
lxmnawcu9z,228.0,Rihanna,Femke,Friend,square,809.0,i,match,True
lxmnawcu9z,229.0,Rihanna,Femke,Stranger,triangle,968.0,e,mismatch,True
lxmnawcu9z,230.0,Rihanna,Femke,Friend,square,838.0,i,match,True
lxmnawcu9z,231.0,Rihanna,Femke,Friend,triangle,881.0,e,mismatch,True
lxmnawcu9z,232.0,Rihanna,Femke,Self,square,865.0,e,mismatch,True
lxmnawcu9z,233.0,Rihanna,Femke,Self,square,705.0,e,mismatch,True
lxmnawcu9z,234.0,Rihanna,Femke,Friend,square,918.0,i,match,True
lxmnawcu9z,235.0,Rihanna,Femke,Self,circle,750.0,e,mismatch,True
lxmnawcu9z,236.0,Rihanna,Femke,Self,circle,735.0,e,mismatch,True
lxmnawcu9z,237.0,Rihanna,Femke,Friend,circle,964.0,i,match,False
lxmnawcu9z,238.0,Rihanna,Femke,Friend,circle,844.0,e,mismatch,True
lxmnawcu9z,239.0,Rihanna,Femke,Self,square,732.0,e,mismatch,True
lxmnawcu9z,240.0,Rihanna,Femke,Self,square,768.0,e,mismatch,True
lxmnawcu9z,241.0,Rihanna,Femke,Self,triangle,839.0,e,mismatch,False
lxmnawcu9z,242.0,Rihanna,Femke,Self,circle,886.0,e,mismatch,True
lxmnawcu9z,243.0,Rihanna,Femke,Stranger,circle,1094.0,i,match,True
lxmnawcu9z,244.0,Rihanna,Femke,Self,triangle,1313.0,i,match,True
lxmnawcu9z,245.0,Rihanna,Femke,Friend,circle,866.0,e,mismatch,True
lxmnawcu9z,246.0,Rihanna,Femke,Friend,triangle,906.0,e,mismatch,True
lxmnawcu9z,247.0,Rihanna,Femke,Stranger,triangle,1537.0,e,mismatch,True
lxmnawcu9z,248.0,Rihanna,Femke,Self,circle,1641.0,e,mismatch,True
lxmnawcu9z,249.0,Rihanna,Femke,Friend,square,1295.0,i,match,True
lxmnawcu9z,250.0,Rihanna,Femke,Self,square,725.0,e,mismatch,True
lxmnawcu9z,251.0,Rihanna,Femke,Self,square,1301.0,i,match,False
lxmnawcu9z,252.0,Rihanna,Femke,Self,triangle,1121.0,e,mismatch,False
lxmnawcu9z,253.0,Rihanna,Femke,Friend,square,1044.0,e,mismatch,False
lxmnawcu9z,254.0,Rihanna,Femke,Friend,triangle,,,,False
lxmnawcu9z,255.0,Rihanna,Femke,Friend,circle,,,,False
lxmnawcu9z,256.0,Rihanna,Femke,Self,triangle,766.0,i,match,True
lxmnawcu9z,257.0,Rihanna,Femke,Self,circle,655.0,e,mismatch,True
lxmnawcu9z,258.0,Rihanna,Femke,Stranger,circle,732.0,i,match,True
lxmnawcu9z,259.0,Rihanna,Femke,Stranger,square,860.0,e,mismatch,True
lxmnawcu9z,260.0,Rihanna,Femke,Self,triangle,1416.0,i,match,True
lxmnawcu9z,261.0,Rihanna,Femke,Stranger,triangle,876.0,e,mismatch,True
lxmnawcu9z,262.0,Rihanna,Femke,Self,circle,765.0,e,mismatch,True
lxmnawcu9z,263.0,Rihanna,Femke,Self,triangle,966.0,i,match,True
lxmnawcu9z,264.0,Rihanna,Femke,Friend,circle,1049.0,e,mismatch,True
lxmnawcu9z,265.0,Rihanna,Femke,Stranger,triangle,1042.0,e,mismatch,True
lxmnawcu9z,266.0,Rihanna,Femke,Self,square,959.0,e,mismatch,True
lxmnawcu9z,267.0,Rihanna,Femke,Friend,triangle,1191.0,e,mismatch,True
lxmnawcu9z,268.0,Rihanna,Femke,Self,square,788.0,e,mismatch,True
lxmnawcu9z,269.0,Rihanna,Femke,Self,circle,745.0,e,mismatch,True
lxmnawcu9z,270.0,Rihanna,Femke,Stranger,square,994.0,e,mismatch,True
lxmnawcu9z,271.0,Rihanna,Femke,Stranger,square,928.0,e,mismatch,True
lxmnawcu9z,272.0,Rihanna,Femke,Friend,circle,883.0,e,mismatch,True
lxmnawcu9z,273.0,Rihanna,Femke,Stranger,triangle,1147.0,e,mismatch,True
lxmnawcu9z,274.0,Rihanna,Femke,Friend,triangle,863.0,e,mismatch,True
lxmnawcu9z,275.0,Rihanna,Femke,Friend,circle,839.0,e,mismatch,True
lxmnawcu9z,276.0,Rihanna,Femke,Friend,square,932.0,e,mismatch,False
lxmnawcu9z,277.0,Rihanna,Femke,Stranger,circle,2249.0,i,match,True
lxmnawcu9z,278.0,Rihanna,Femke,Friend,circle,740.0,e,mismatch,True
lxmnawcu9z,279.0,Rihanna,Femke,Stranger,square,894.0,e,mismatch,True
lxmnawcu9z,280.0,Rihanna,Femke,Friend,triangle,1120.0,e,mismatch,True
lxmnawcu9z,281.0,Rihanna,Femke,Stranger,circle,940.0,i,match,True
lxmnawcu9z,282.0,Rihanna,Femke,Friend,circle,850.0,e,mismatch,True
lxmnawcu9z,283.0,Rihanna,Femke,Stranger,triangle,919.0,e,mismatch,True
lxmnawcu9z,284.0,Rihanna,Femke,Stranger,triangle,1151.0,e,mismatch,True
lxmnawcu9z,285.0,Rihanna,Femke,Self,triangle,950.0,i,match,True
lxmnawcu9z,286.0,Rihanna,Femke,Stranger,square,1069.0,e,mismatch,True
lxmnawcu9z,287.0,Rihanna,Femke,Friend,triangle,947.0,e,mismatch,True
lxmnawcu9z,288.0,Rihanna,Femke,Stranger,triangle,955.0,e,mismatch,True
lxmnawcu9z,289.0,Rihanna,Femke,Self,circle,812.0,e,mismatch,True
lxmnawcu9z,290.0,Rihanna,Femke,Self,square,949.0,e,mismatch,True
lxmnawcu9z,291.0,Rihanna,Femke,Stranger,triangle,872.0,e,mismatch,True
lxmnawcu9z,292.0,Rihanna,Femke,Self,square,990.0,e,mismatch,True
lxmnawcu9z,293.0,Rihanna,Femke,Self,circle,856.0,e,mismatch,True
lxmnawcu9z,294.0,Rihanna,Femke,Stranger,triangle,821.0,e,mismatch,True
lxmnawcu9z,295.0,Rihanna,Femke,Stranger,triangle,852.0,e,mismatch,True
lxmnawcu9z,296.0,Rihanna,Femke,Stranger,square,767.0,e,mismatch,True
lxmnawcu9z,297.0,Rihanna,Femke,Self,square,862.0,e,mismatch,True
lxmnawcu9z,298.0,Rihanna,Femke,Self,circle,1232.0,e,mismatch,True
lxmnawcu9z,299.0,Rihanna,Femke,Friend,triangle,933.0,e,mismatch,True
lxmnawcu9z,300.0,Rihanna,Femke,Stranger,triangle,1288.0,e,mismatch,True
lxmnawcu9z,301.0,Rihanna,Femke,Stranger,circle,941.0,i,match,True
lxmnawcu9z,302.0,Rihanna,Femke,Self,triangle,858.0,i,match,True
lxmnawcu9z,303.0,Rihanna,Femke,Friend,circle,804.0,e,mismatch,True
lxmnawcu9z,304.0,Rihanna,Femke,Stranger,square,972.0,e,mismatch,True
lxmnawcu9z,305.0,Rihanna,Femke,Self,triangle,875.0,i,match,True
lxmnawcu9z,306.0,Rihanna,Femke,Self,square,822.0,e,mismatch,True
lxmnawcu9z,307.0,Rihanna,Femke,Stranger,triangle,862.0,e,mismatch,True
lxmnawcu9z,308.0,Rihanna,Femke,Friend,circle,778.0,e,mismatch,True
lxmnawcu9z,309.0,Rihanna,Femke,Friend,circle,782.0,e,mismatch,True
lxmnawcu9z,310.0,Rihanna,Femke,Self,circle,862.0,e,mismatch,True
lxmnawcu9z,311.0,Rihanna,Femke,Stranger,square,875.0,e,mismatch,True
lxmnawcu9z,312.0,Rihanna,Femke,Stranger,square,956.0,e,mismatch,True
lxmnawcu9z,313.0,Rihanna,Femke,Self,circle,772.0,e,mismatch,True
lxmnawcu9z,314.0,Rihanna,Femke,Friend,triangle,928.0,e,mismatch,True
lxmnawcu9z,315.0,Rihanna,Femke,Friend,circle,886.0,e,mismatch,True
lxmnawcu9z,316.0,Rihanna,Femke,Self,square,897.0,e,mismatch,True
lxmnawcu9z,317.0,Rihanna,Femke,Stranger,triangle,1043.0,e,mismatch,True
lxmnawcu9z,318.0,Rihanna,Femke,Stranger,triangle,1360.0,e,mismatch,True
lxmnawcu9z,319.0,Rihanna,Femke,Self,circle,799.0,e,mismatch,True
lxmnawcu9z,320.0,Rihanna,Femke,Friend,circle,845.0,e,mismatch,True
lxmnawcu9z,321.0,Rihanna,Femke,Self,circle,739.0,e,mismatch,True
lxmnawcu9z,322.0,Rihanna,Femke,Stranger,circle,743.0,i,match,True
lxmnawcu9z,323.0,Rihanna,Femke,Self,triangle,945.0,e,mismatch,False
lxmnawcu9z,324.0,Rihanna,Femke,Self,circle,2263.0,i,match,False
f1fw4wnf00,1.0,Bono,Martijn,Friend,circle,,,,False
f1fw4wnf00,2.0,Bono,Martijn,Friend,triangle,855.0,e,mismatch,True
f1fw4wnf00,3.0,Bono,Martijn,Friend,circle,1188.0,i,match,True
f1fw4wnf00,4.0,Bono,Martijn,Friend,triangle,650.0,e,mismatch,True
f1fw4wnf00,5.0,Bono,Martijn,Self,circle,879.0,e,mismatch,True
f1fw4wnf00,6.0,Bono,Martijn,Self,triangle,993.0,i,match,False
f1fw4wnf00,7.0,Bono,Martijn,Friend,square,956.0,i,match,False
f1fw4wnf00,8.0,Bono,Martijn,Self,triangle,1461.0,i,match,False
f1fw4wnf00,9.0,Bono,Martijn,Stranger,circle,1068.0,e,mismatch,True
f1fw4wnf00,10.0,Bono,Martijn,Stranger,triangle,907.0,e,mismatch,False
f1fw4wnf00,11.0,Bono,Martijn,Stranger,square,960.0,e,mismatch,True
f1fw4wnf00,12.0,Bono,Martijn,Stranger,square,1055.0,i,match,False
f1fw4wnf00,13.0,Bono,Martijn,Self,square,884.0,i,match,True
f1fw4wnf00,14.0,Bono,Martijn,Friend,triangle,948.0,e,mismatch,True
f1fw4wnf00,15.0,Bono,Martijn,Self,square,1561.0,e,mismatch,False
f1fw4wnf00,16.0,Bono,Martijn,Friend,triangle,856.0,e,mismatch,True
f1fw4wnf00,17.0,Bono,Martijn,Stranger,square,987.0,e,mismatch,True
f1fw4wnf00,18.0,Bono,Martijn,Self,circle,703.0,e,mismatch,True
f1fw4wnf00,19.0,Bono,Martijn,Self,circle,812.0,e,mismatch,True
f1fw4wnf00,20.0,Bono,Martijn,Stranger,square,923.0,e,mismatch,True
f1fw4wnf00,21.0,Bono,Martijn,Stranger,triangle,881.0,i,match,True
f1fw4wnf00,22.0,Bono,Martijn,Friend,square,1517.0,i,match,False
f1fw4wnf00,23.0,Bono,Martijn,Stranger,circle,879.0,e,mismatch,True
f1fw4wnf00,24.0,Bono,Martijn,Friend,triangle,762.0,e,mismatch,True
f1fw4wnf00,25.0,Bono,Martijn,Self,square,816.0,i,match,True
f1fw4wnf00,26.0,Bono,Martijn,Self,square,1023.0,i,match,True
f1fw4wnf00,27.0,Bono,Martijn,Stranger,triangle,868.0,i,match,True
f1fw4wnf00,28.0,Bono,Martijn,Friend,triangle,651.0,e,mismatch,True
f1fw4wnf00,29.0,Bono,Martijn,Stranger,square,996.0,e,mismatch,True
f1fw4wnf00,30.0,Bono,Martijn,Self,square,760.0,i,match,True
f1fw4wnf00,31.0,Bono,Martijn,Friend,circle,1079.0,e,mismatch,False
f1fw4wnf00,32.0,Bono,Martijn,Self,square,652.0,e,mismatch,False
f1fw4wnf00,33.0,Bono,Martijn,Self,triangle,808.0,e,mismatch,True
f1fw4wnf00,34.0,Bono,Martijn,Stranger,circle,763.0,i,match,False
f1fw4wnf00,35.0,Bono,Martijn,Self,circle,909.0,e,mismatch,True
f1fw4wnf00,36.0,Bono,Martijn,Self,triangle,902.0,e,mismatch,True
f1fw4wnf00,37.0,Bono,Martijn,Friend,triangle,682.0,i,match,False
f1fw4wnf00,38.0,Bono,Martijn,Stranger,triangle,700.0,i,match,True
f1fw4wnf00,39.0,Bono,Martijn,Self,circle,794.0,i,match,False
f1fw4wnf00,40.0,Bono,Martijn,Self,square,603.0,i,match,True
f1fw4wnf00,41.0,Bono,Martijn,Friend,triangle,133.0,i,match,False
f1fw4wnf00,42.0,Bono,Martijn,Friend,triangle,731.0,i,match,False
f1fw4wnf00,43.0,Bono,Martijn,Stranger,square,663.0,i,match,False
f1fw4wnf00,44.0,Bono,Martijn,Self,triangle,956.0,e,mismatch,True
f1fw4wnf00,45.0,Bono,Martijn,Stranger,circle,862.0,e,mismatch,True
f1fw4wnf00,46.0,Bono,Martijn,Friend,triangle,862.0,i,match,False
f1fw4wnf00,47.0,Bono,Martijn,Self,square,901.0,i,match,True
f1fw4wnf00,48.0,Bono,Martijn,Friend,triangle,899.0,e,mismatch,True
f1fw4wnf00,49.0,Bono,Martijn,Friend,triangle,676.0,e,mismatch,True
f1fw4wnf00,50.0,Bono,Martijn,Self,square,889.0,i,match,True
f1fw4wnf00,51.0,Bono,Martijn,Self,square,800.0,e,mismatch,False
f1fw4wnf00,52.0,Bono,Martijn,Stranger,triangle,1472.0,i,match,True
f1fw4wnf00,53.0,Bono,Martijn,Stranger,triangle,787.0,i,match,True
f1fw4wnf00,54.0,Bono,Martijn,Friend,circle,635.0,i,match,True
f1fw4wnf00,55.0,Bono,Martijn,Stranger,circle,705.0,e,mismatch,True
f1fw4wnf00,56.0,Bono,Martijn,Self,circle,764.0,e,mismatch,True
f1fw4wnf00,57.0,Bono,Martijn,Friend,circle,1063.0,i,match,True
f1fw4wnf00,58.0,Bono,Martijn,Friend,square,749.0,e,mismatch,True
f1fw4wnf00,59.0,Bono,Martijn,Friend,square,977.0,e,mismatch,True
f1fw4wnf00,60.0,Bono,Martijn,Friend,square,792.0,e,mismatch,True
f1fw4wnf00,61.0,Bono,Martijn,Friend,circle,758.0,i,match,True
f1fw4wnf00,62.0,Bono,Martijn,Self,triangle,874.0,i,match,False
f1fw4wnf00,63.0,Bono,Martijn,Stranger,circle,967.0,e,mismatch,True
f1fw4wnf00,64.0,Bono,Martijn,Stranger,circle,869.0,e,mismatch,True
f1fw4wnf00,65.0,Bono,Martijn,Stranger,circle,639.0,e,mismatch,True
f1fw4wnf00,66.0,Bono,Martijn,Friend,triangle,788.0,e,mismatch,True
f1fw4wnf00,67.0,Bono,Martijn,Self,circle,793.0,e,mismatch,True
f1fw4wnf00,68.0,Bono,Martijn,Friend,triangle,840.0,e,mismatch,True
f1fw4wnf00,69.0,Bono,Martijn,Stranger,circle,924.0,i,match,False
f1fw4wnf00,70.0,Bono,Martijn,Stranger,circle,670.0,e,mismatch,True
f1fw4wnf00,71.0,Bono,Martijn,Friend,square,896.0,i,match,False
f1fw4wnf00,72.0,Bono,Martijn,Self,square,664.0,i,match,True
f1fw4wnf00,73.0,Bono,Martijn,Stranger,square,841.0,e,mismatch,True
f1fw4wnf00,74.0,Bono,Martijn,Self,circle,756.0,e,mismatch,True
f1fw4wnf00,75.0,Bono,Martijn,Friend,triangle,962.0,e,mismatch,True
f1fw4wnf00,76.0,Bono,Martijn,Stranger,square,714.0,e,mismatch,True
f1fw4wnf00,77.0,Bono,Martijn,Friend,circle,607.0,e,mismatch,False
f1fw4wnf00,78.0,Bono,Martijn,Self,square,725.0,i,match,True
f1fw4wnf00,79.0,Bono,Martijn,Self,circle,598.0,e,mismatch,True
f1fw4wnf00,80.0,Bono,Martijn,Friend,circle,501.0,i,match,True
f1fw4wnf00,81.0,Bono,Martijn,Stranger,circle,729.0,e,mismatch,True
f1fw4wnf00,82.0,Bono,Martijn,Stranger,square,818.0,i,match,False
f1fw4wnf00,83.0,Bono,Martijn,Stranger,circle,891.0,e,mismatch,True
f1fw4wnf00,84.0,Bono,Martijn,Stranger,square,581.0,e,mismatch,True
f1fw4wnf00,85.0,Bono,Martijn,Self,circle,971.0,e,mismatch,True
f1fw4wnf00,86.0,Bono,Martijn,Friend,circle,1064.0,e,mismatch,False
f1fw4wnf00,87.0,Bono,Martijn,Self,circle,667.0,e,mismatch,True
f1fw4wnf00,88.0,Bono,Martijn,Stranger,circle,824.0,e,mismatch,True
f1fw4wnf00,89.0,Bono,Martijn,Friend,triangle,785.0,e,mismatch,True
f1fw4wnf00,90.0,Bono,Martijn,Self,triangle,729.0,e,mismatch,True
f1fw4wnf00,91.0,Bono,Martijn,Stranger,triangle,573.0,i,match,True
f1fw4wnf00,92.0,Bono,Martijn,Stranger,square,654.0,e,mismatch,True
f1fw4wnf00,93.0,Bono,Martijn,Self,triangle,777.0,e,mismatch,True
f1fw4wnf00,94.0,Bono,Martijn,Friend,triangle,1003.0,e,mismatch,True
f1fw4wnf00,95.0,Bono,Martijn,Self,square,877.0,i,match,True
f1fw4wnf00,96.0,Bono,Martijn,Self,triangle,596.0,e,mismatch,True
f1fw4wnf00,97.0,Bono,Martijn,Self,circle,826.0,e,mismatch,True
f1fw4wnf00,98.0,Bono,Martijn,Self,triangle,997.0,e,mismatch,True
f1fw4wnf00,99.0,Bono,Martijn,Friend,square,791.0,e,mismatch,True
f1fw4wnf00,100.0,Bono,Martijn,Stranger,circle,767.0,i,match,False
f1fw4wnf00,101.0,Bono,Martijn,Friend,square,855.0,e,mismatch,True
f1fw4wnf00,102.0,Bono,Martijn,Friend,triangle,961.0,e,mismatch,True
f1fw4wnf00,103.0,Bono,Martijn,Stranger,circle,835.0,e,mismatch,True
f1fw4wnf00,104.0,Bono,Martijn,Friend,square,823.0,e,mismatch,True
f1fw4wnf00,105.0,Bono,Martijn,Stranger,triangle,940.0,e,mismatch,False
f1fw4wnf00,106.0,Bono,Martijn,Self,triangle,729.0,e,mismatch,True
f1fw4wnf00,107.0,Bono,Martijn,Friend,triangle,717.0,e,mismatch,True
f1fw4wnf00,108.0,Bono,Martijn,Stranger,circle,583.0,e,mismatch,True
f1fw4wnf00,109.0,Bono,Martijn,Friend,circle,940.0,i,match,True
f1fw4wnf00,110.0,Bono,Martijn,Friend,triangle,737.0,e,mismatch,True
f1fw4wnf00,111.0,Bono,Martijn,Stranger,triangle,722.0,i,match,True
f1fw4wnf00,112.0,Bono,Martijn,Stranger,triangle,820.0,i,match,True
f1fw4wnf00,113.0,Bono,Martijn,Stranger,triangle,516.0,i,match,True
f1fw4wnf00,114.0,Bono,Martijn,Self,circle,824.0,e,mismatch,True
f1fw4wnf00,115.0,Bono,Martijn,Friend,triangle,1022.0,e,mismatch,True
f1fw4wnf00,116.0,Bono,Martijn,Friend,square,737.0,e,mismatch,True
f1fw4wnf00,117.0,Bono,Martijn,Stranger,triangle,792.0,e,mismatch,False
f1fw4wnf00,118.0,Bono,Martijn,Stranger,square,667.0,e,mismatch,True
f1fw4wnf00,119.0,Bono,Martijn,Self,square,908.0,i,match,True
f1fw4wnf00,120.0,Bono,Martijn,Friend,triangle,703.0,e,mismatch,True
f1fw4wnf00,121.0,Bono,Martijn,Self,circle,780.0,e,mismatch,True
f1fw4wnf00,122.0,Bono,Martijn,Self,triangle,884.0,e,mismatch,True
f1fw4wnf00,123.0,Bono,Martijn,Friend,circle,1090.0,e,mismatch,False
f1fw4wnf00,124.0,Bono,Martijn,Friend,square,760.0,e,mismatch,True
f1fw4wnf00,125.0,Bono,Martijn,Friend,square,600.0,e,mismatch,True
f1fw4wnf00,126.0,Bono,Martijn,Stranger,square,741.0,e,mismatch,True
f1fw4wnf00,127.0,Bono,Martijn,Stranger,square,554.0,e,mismatch,True
f1fw4wnf00,128.0,Bono,Martijn,Friend,circle,743.0,i,match,True
f1fw4wnf00,129.0,Bono,Martijn,Self,circle,638.0,e,mismatch,True
f1fw4wnf00,130.0,Bono,Martijn,Stranger,triangle,996.0,i,match,True
f1fw4wnf00,131.0,Bono,Martijn,Stranger,circle,686.0,e,mismatch,True
f1fw4wnf00,132.0,Bono,Martijn,Self,square,802.0,i,match,True
f1fw4wnf00,133.0,Bono,Martijn,Friend,circle,1054.0,e,mismatch,False
f1fw4wnf00,134.0,Bono,Martijn,Friend,square,713.0,e,mismatch,True
f1fw4wnf00,135.0,Bono,Martijn,Stranger,circle,671.0,e,mismatch,True
f1fw4wnf00,136.0,Bono,Martijn,Stranger,triangle,903.0,i,match,True
f1fw4wnf00,137.0,Bono,Martijn,Friend,triangle,558.0,e,mismatch,True
f1fw4wnf00,138.0,Bono,Martijn,Friend,square,746.0,e,mismatch,True
f1fw4wnf00,139.0,Bono,Martijn,Stranger,square,943.0,e,mismatch,True
f1fw4wnf00,140.0,Bono,Martijn,Friend,circle,910.0,e,mismatch,False
f1fw4wnf00,141.0,Bono,Martijn,Stranger,triangle,864.0,i,match,True
f1fw4wnf00,142.0,Bono,Martijn,Friend,square,628.0,e,mismatch,True
f1fw4wnf00,143.0,Bono,Martijn,Friend,circle,566.0,e,mismatch,False
f1fw4wnf00,144.0,Bono,Martijn,Self,triangle,1829.0,i,match,False
f1fw4wnf00,145.0,Bono,Martijn,Self,circle,685.0,e,mismatch,True
f1fw4wnf00,146.0,Bono,Martijn,Friend,square,858.0,e,mismatch,True
f1fw4wnf00,147.0,Bono,Martijn,Self,triangle,823.0,e,mismatch,True
f1fw4wnf00,148.0,Bono,Martijn,Friend,circle,733.0,i,match,True
f1fw4wnf00,149.0,Bono,Martijn,Stranger,triangle,866.0,e,mismatch,False
f1fw4wnf00,150.0,Bono,Martijn,Self,triangle,724.0,e,mismatch,True
f1fw4wnf00,151.0,Bono,Martijn,Self,circle,638.0,e,mismatch,True
f1fw4wnf00,152.0,Bono,Martijn,Friend,square,663.0,e,mismatch,True
f1fw4wnf00,153.0,Bono,Martijn,Self,triangle,927.0,e,mismatch,True
f1fw4wnf00,154.0,Bono,Martijn,Self,square,781.0,i,match,True
f1fw4wnf00,155.0,Bono,Martijn,Self,square,854.0,i,match,True
f1fw4wnf00,156.0,Bono,Martijn,Stranger,square,932.0,e,mismatch,True
f1fw4wnf00,157.0,Bono,Martijn,Stranger,square,874.0,e,mismatch,True
f1fw4wnf00,158.0,Bono,Martijn,Self,circle,970.0,e,mismatch,True
f1fw4wnf00,159.0,Bono,Martijn,Friend,circle,878.0,i,match,True
f1fw4wnf00,160.0,Bono,Martijn,Self,circle,603.0,i,match,False
f1fw4wnf00,161.0,Bono,Martijn,Friend,circle,781.0,i,match,True
f1fw4wnf00,162.0,Bono,Martijn,Stranger,triangle,739.0,e,mismatch,False
f1fw4wnf00,163.0,Bono,Martijn,Stranger,circle,1036.0,e,mismatch,True
f1fw4wnf00,164.0,Bono,Martijn,Self,triangle,948.0,e,mismatch,True
f1fw4wnf00,165.0,Bono,Martijn,Self,circle,821.0,e,mismatch,True
f1fw4wnf00,166.0,Bono,Martijn,Self,circle,659.0,e,mismatch,True
f1fw4wnf00,167.0,Bono,Martijn,Friend,square,996.0,e,mismatch,True
f1fw4wnf00,168.0,Bono,Martijn,Stranger,square,661.0,e,mismatch,True
f1fw4wnf00,169.0,Bono,Martijn,Stranger,circle,825.0,e,mismatch,True
f1fw4wnf00,170.0,Bono,Martijn,Stranger,circle,645.0,e,mismatch,True
f1fw4wnf00,171.0,Bono,Martijn,Friend,circle,1149.0,i,match,True
f1fw4wnf00,172.0,Bono,Martijn,Friend,square,661.0,e,mismatch,True
f1fw4wnf00,173.0,Bono,Martijn,Self,triangle,805.0,e,mismatch,True
f1fw4wnf00,174.0,Bono,Martijn,Stranger,circle,689.0,e,mismatch,True
f1fw4wnf00,175.0,Bono,Martijn,Friend,triangle,845.0,e,mismatch,True
f1fw4wnf00,176.0,Bono,Martijn,Stranger,triangle,644.0,i,match,True
f1fw4wnf00,177.0,Bono,Martijn,Friend,square,715.0,e,mismatch,True
f1fw4wnf00,178.0,Bono,Martijn,Friend,circle,811.0,i,match,True
f1fw4wnf00,179.0,Bono,Martijn,Stranger,triangle,896.0,i,match,True
f1fw4wnf00,180.0,Bono,Martijn,Self,square,471.0,i,match,True
f1fw4wnf00,181.0,Bono,Martijn,Stranger,circle,962.0,i,match,False
f1fw4wnf00,182.0,Bono,Martijn,Stranger,circle,734.0,e,mismatch,True
f1fw4wnf00,183.0,Bono,Martijn,Friend,triangle,919.0,e,mismatch,True
f1fw4wnf00,184.0,Bono,Martijn,Stranger,triangle,827.0,i,match,True
f1fw4wnf00,185.0,Bono,Martijn,Self,triangle,696.0,e,mismatch,True
f1fw4wnf00,186.0,Bono,Martijn,Stranger,circle,961.0,e,mismatch,True
f1fw4wnf00,187.0,Bono,Martijn,Friend,circle,730.0,i,match,True
f1fw4wnf00,188.0,Bono,Martijn,Self,circle,730.0,e,mismatch,True
f1fw4wnf00,189.0,Bono,Martijn,Self,square,1014.0,i,match,True
f1fw4wnf00,190.0,Bono,Martijn,Self,square,684.0,i,match,True
f1fw4wnf00,191.0,Bono,Martijn,Friend,triangle,945.0,i,match,False
f1fw4wnf00,192.0,Bono,Martijn,Self,circle,810.0,e,mismatch,True
f1fw4wnf00,193.0,Bono,Martijn,Friend,square,813.0,e,mismatch,True
f1fw4wnf00,194.0,Bono,Martijn,Friend,square,781.0,e,mismatch,True
f1fw4wnf00,195.0,Bono,Martijn,Self,square,937.0,i,match,True
f1fw4wnf00,196.0,Bono,Martijn,Stranger,triangle,770.0,i,match,True
f1fw4wnf00,197.0,Bono,Martijn,Self,square,620.0,e,mismatch,False
f1fw4wnf00,198.0,Bono,Martijn,Self,square,695.0,i,match,True
f1fw4wnf00,199.0,Bono,Martijn,Friend,triangle,667.0,i,match,False
f1fw4wnf00,200.0,Bono,Martijn,Stranger,square,1009.0,e,mismatch,True
f1fw4wnf00,201.0,Bono,Martijn,Stranger,circle,942.0,e,mismatch,True
f1fw4wnf00,202.0,Bono,Martijn,Friend,square,713.0,e,mismatch,True
f1fw4wnf00,203.0,Bono,Martijn,Self,circle,747.0,e,mismatch,True
f1fw4wnf00,204.0,Bono,Martijn,Self,triangle,943.0,e,mismatch,True
f1fw4wnf00,205.0,Bono,Martijn,Self,circle,722.0,e,mismatch,True
f1fw4wnf00,206.0,Bono,Martijn,Stranger,circle,805.0,e,mismatch,True
f1fw4wnf00,207.0,Bono,Martijn,Friend,circle,891.0,i,match,True
f1fw4wnf00,208.0,Bono,Martijn,Friend,square,754.0,e,mismatch,True
f1fw4wnf00,209.0,Bono,Martijn,Stranger,triangle,754.0,i,match,True
f1fw4wnf00,210.0,Bono,Martijn,Stranger,triangle,475.0,i,match,True
f1fw4wnf00,211.0,Bono,Martijn,Self,circle,899.0,e,mismatch,True
f1fw4wnf00,212.0,Bono,Martijn,Self,triangle,770.0,e,mismatch,True
f1fw4wnf00,213.0,Bono,Martijn,Self,square,481.0,i,match,True
f1fw4wnf00,214.0,Bono,Martijn,Self,square,796.0,i,match,True
f1fw4wnf00,215.0,Bono,Martijn,Stranger,triangle,789.0,i,match,True
f1fw4wnf00,216.0,Bono,Martijn,Friend,square,608.0,e,mismatch,True
f1fw4wnf00,217.0,Bono,Martijn,Self,square,858.0,i,match,True
f1fw4wnf00,218.0,Bono,Martijn,Friend,circle,763.0,i,match,True
f1fw4wnf00,219.0,Bono,Martijn,Self,triangle,783.0,e,mismatch,True
f1fw4wnf00,220.0,Bono,Martijn,Friend,triangle,2997.0,i,match,False
f1fw4wnf00,221.0,Bono,Martijn,Stranger,triangle,752.0,i,match,True
f1fw4wnf00,222.0,Bono,Martijn,Self,square,726.0,i,match,True
f1fw4wnf00,223.0,Bono,Martijn,Stranger,square,898.0,e,mismatch,True
f1fw4wnf00,224.0,Bono,Martijn,Self,circle,737.0,e,mismatch,True
f1fw4wnf00,225.0,Bono,Martijn,Stranger,square,1187.0,e,mismatch,True
f1fw4wnf00,226.0,Bono,Martijn,Stranger,circle,656.0,i,match,False
f1fw4wnf00,227.0,Bono,Martijn,Self,triangle,808.0,e,mismatch,True
f1fw4wnf00,228.0,Bono,Martijn,Stranger,triangle,531.0,i,match,True
f1fw4wnf00,229.0,Bono,Martijn,Friend,circle,706.0,i,match,True
f1fw4wnf00,230.0,Bono,Martijn,Friend,circle,664.0,i,match,True
f1fw4wnf00,231.0,Bono,Martijn,Self,circle,638.0,e,mismatch,True
f1fw4wnf00,232.0,Bono,Martijn,Self,triangle,682.0,e,mismatch,True
f1fw4wnf00,233.0,Bono,Martijn,Friend,circle,706.0,i,match,True
f1fw4wnf00,234.0,Bono,Martijn,Stranger,circle,731.0,e,mismatch,True
f1fw4wnf00,235.0,Bono,Martijn,Friend,circle,744.0,i,match,True
f1fw4wnf00,236.0,Bono,Martijn,Self,triangle,840.0,e,mismatch,True
f1fw4wnf00,237.0,Bono,Martijn,Self,triangle,575.0,e,mismatch,True
f1fw4wnf00,238.0,Bono,Martijn,Stranger,square,765.0,e,mismatch,True
f1fw4wnf00,239.0,Bono,Martijn,Friend,triangle,938.0,i,match,False
f1fw4wnf00,240.0,Bono,Martijn,Self,square,768.0,i,match,True
f1fw4wnf00,241.0,Bono,Martijn,Stranger,triangle,1023.0,i,match,True
f1fw4wnf00,242.0,Bono,Martijn,Self,circle,751.0,e,mismatch,True
f1fw4wnf00,243.0,Bono,Martijn,Friend,circle,726.0,i,match,True
f1fw4wnf00,244.0,Bono,Martijn,Self,circle,804.0,e,mismatch,True
f1fw4wnf00,245.0,Bono,Martijn,Self,square,872.0,i,match,True
f1fw4wnf00,246.0,Bono,Martijn,Friend,circle,736.0,i,match,True
f1fw4wnf00,247.0,Bono,Martijn,Stranger,triangle,672.0,i,match,True
f1fw4wnf00,248.0,Bono,Martijn,Friend,triangle,694.0,e,mismatch,True
f1fw4wnf00,249.0,Bono,Martijn,Friend,square,793.0,e,mismatch,True
f1fw4wnf00,250.0,Bono,Martijn,Stranger,square,752.0,e,mismatch,True
f1fw4wnf00,251.0,Bono,Martijn,Friend,triangle,775.0,i,match,False
f1fw4wnf00,252.0,Bono,Martijn,Stranger,square,832.0,e,mismatch,True
f1fw4wnf00,253.0,Bono,Martijn,Stranger,circle,720.0,i,match,False
f1fw4wnf00,254.0,Bono,Martijn,Friend,square,812.0,e,mismatch,True
f1fw4wnf00,255.0,Bono,Martijn,Self,circle,1004.0,e,mismatch,True
f1fw4wnf00,256.0,Bono,Martijn,Stranger,triangle,1276.0,i,match,True
f1fw4wnf00,257.0,Bono,Martijn,Friend,square,840.0,e,mismatch,True
f1fw4wnf00,258.0,Bono,Martijn,Self,circle,903.0,e,mismatch,True
f1fw4wnf00,259.0,Bono,Martijn,Stranger,triangle,853.0,i,match,True
f1fw4wnf00,260.0,Bono,Martijn,Friend,triangle,764.0,e,mismatch,True
f1fw4wnf00,261.0,Bono,Martijn,Self,square,687.0,i,match,True
f1fw4wnf00,262.0,Bono,Martijn,Friend,square,664.0,e,mismatch,True
f1fw4wnf00,263.0,Bono,Martijn,Friend,square,882.0,e,mismatch,True
f1fw4wnf00,264.0,Bono,Martijn,Friend,circle,845.0,i,match,True
f1fw4wnf00,265.0,Bono,Martijn,Self,triangle,884.0,e,mismatch,True
f1fw4wnf00,266.0,Bono,Martijn,Friend,square,880.0,e,mismatch,True
f1fw4wnf00,267.0,Bono,Martijn,Friend,circle,1134.0,i,match,True
f1fw4wnf00,268.0,Bono,Martijn,Friend,circle,773.0,i,match,True
f1fw4wnf00,269.0,Bono,Martijn,Self,triangle,719.0,e,mismatch,True
f1fw4wnf00,270.0,Bono,Martijn,Stranger,circle,1220.0,e,mismatch,True
f1fw4wnf00,271.0,Bono,Martijn,Friend,circle,793.0,i,match,True
f1fw4wnf00,272.0,Bono,Martijn,Friend,circle,691.0,e,mismatch,False
f1fw4wnf00,273.0,Bono,Martijn,Self,triangle,741.0,e,mismatch,True
f1fw4wnf00,274.0,Bono,Martijn,Friend,square,925.0,e,mismatch,True
f1fw4wnf00,275.0,Bono,Martijn,Stranger,square,1080.0,e,mismatch,True
f1fw4wnf00,276.0,Bono,Martijn,Self,circle,1078.0,e,mismatch,True
f1fw4wnf00,277.0,Bono,Martijn,Friend,circle,1036.0,e,mismatch,False
f1fw4wnf00,278.0,Bono,Martijn,Stranger,square,894.0,e,mismatch,True
f1fw4wnf00,279.0,Bono,Martijn,Self,triangle,678.0,e,mismatch,True
f1fw4wnf00,280.0,Bono,Martijn,Stranger,circle,832.0,e,mismatch,True
f1fw4wnf00,281.0,Bono,Martijn,Stranger,triangle,614.0,i,match,True
f1fw4wnf00,282.0,Bono,Martijn,Stranger,square,582.0,e,mismatch,True
f1fw4wnf00,283.0,Bono,Martijn,Self,square,1502.0,i,match,True
f1fw4wnf00,284.0,Bono,Martijn,Self,triangle,749.0,e,mismatch,True
f1fw4wnf00,285.0,Bono,Martijn,Self,triangle,1108.0,e,mismatch,True
f1fw4wnf00,286.0,Bono,Martijn,Stranger,square,852.0,e,mismatch,True
f1fw4wnf00,287.0,Bono,Martijn,Friend,triangle,963.0,e,mismatch,True
f1fw4wnf00,288.0,Bono,Martijn,Stranger,square,718.0,e,mismatch,True
f1fw4wnf00,289.0,Bono,Martijn,Friend,square,722.0,e,mismatch,True
f1fw4wnf00,290.0,Bono,Martijn,Stranger,triangle,730.0,e,mismatch,False
f1fw4wnf00,291.0,Bono,Martijn,Friend,square,793.0,e,mismatch,True
f1fw4wnf00,292.0,Bono,Martijn,Stranger,circle,705.0,e,mismatch,True
f1fw4wnf00,293.0,Bono,Martijn,Friend,triangle,816.0,i,match,False
f1fw4wnf00,294.0,Bono,Martijn,Friend,triangle,564.0,i,match,False
f1fw4wnf00,295.0,Bono,Martijn,Stranger,square,741.0,e,mismatch,True
f1fw4wnf00,296.0,Bono,Martijn,Self,circle,791.0,e,mismatch,True
f1fw4wnf00,297.0,Bono,Martijn,Stranger,circle,839.0,e,mismatch,True
f1fw4wnf00,298.0,Bono,Martijn,Stranger,square,735.0,e,mismatch,True
f1fw4wnf00,299.0,Bono,Martijn,Stranger,square,548.0,e,mismatch,True
f1fw4wnf00,300.0,Bono,Martijn,Stranger,square,457.0,e,mismatch,True
f1fw4wnf00,301.0,Bono,Martijn,Stranger,square,479.0,e,mismatch,True
f1fw4wnf00,302.0,Bono,Martijn,Stranger,square,453.0,e,mismatch,True
f1fw4wnf00,303.0,Bono,Martijn,Friend,circle,807.0,i,match,True
f1fw4wnf00,304.0,Bono,Martijn,Self,triangle,657.0,e,mismatch,True
f1fw4wnf00,305.0,Bono,Martijn,Self,triangle,1208.0,e,mismatch,True
f1fw4wnf00,306.0,Bono,Martijn,Stranger,triangle,938.0,i,match,True
f1fw4wnf00,307.0,Bono,Martijn,Stranger,triangle,610.0,i,match,True
f1fw4wnf00,308.0,Bono,Martijn,Self,triangle,620.0,e,mismatch,True
f1fw4wnf00,309.0,Bono,Martijn,Self,circle,1083.0,e,mismatch,True
f1fw4wnf00,310.0,Bono,Martijn,Friend,square,688.0,e,mismatch,True
f1fw4wnf00,311.0,Bono,Martijn,Stranger,square,660.0,e,mismatch,True
f1fw4wnf00,312.0,Bono,Martijn,Self,square,779.0,i,match,True
f1fw4wnf00,313.0,Bono,Martijn,Stranger,triangle,800.0,i,match,True
f1fw4wnf00,314.0,Bono,Martijn,Self,square,783.0,i,match,True
f1fw4wnf00,315.0,Bono,Martijn,Friend,triangle,683.0,e,mismatch,True
f1fw4wnf00,316.0,Bono,Martijn,Self,square,837.0,i,match,True
f1fw4wnf00,317.0,Bono,Martijn,Stranger,circle,1569.0,e,mismatch,True
f1fw4wnf00,318.0,Bono,Martijn,Self,square,852.0,i,match,True
f1fw4wnf00,319.0,Bono,Martijn,Self,triangle,853.0,e,mismatch,True
f1fw4wnf00,320.0,Bono,Martijn,Stranger,circle,1227.0,e,mismatch,True
f1fw4wnf00,321.0,Bono,Martijn,Self,circle,799.0,e,mismatch,True
f1fw4wnf00,322.0,Bono,Martijn,Stranger,triangle,765.0,i,match,True
f1fw4wnf00,323.0,Bono,Martijn,Self,square,786.0,i,match,True
f1fw4wnf00,324.0,Bono,Martijn,Friend,square,868.0,e,mismatch,True
p0blnsv7dy,1.0,Seal,Dai,Self,square,1731.0,e,mismatch,False
p0blnsv7dy,2.0,Seal,Dai,Self,triangle,,,,False
p0blnsv7dy,3.0,Seal,Dai,Friend,circle,2422.0,e,mismatch,True
p0blnsv7dy,4.0,Seal,Dai,Stranger,square,1554.0,i,match,False
p0blnsv7dy,5.0,Seal,Dai,Friend,square,2019.0,e,mismatch,True
p0blnsv7dy,6.0,Seal,Dai,Friend,circle,1683.0,e,mismatch,True
p0blnsv7dy,7.0,Seal,Dai,Self,triangle,1379.0,e,mismatch,True
p0blnsv7dy,8.0,Seal,Dai,Self,circle,1275.0,e,mismatch,True
p0blnsv7dy,9.0,Seal,Dai,Friend,circle,1348.0,e,mismatch,True
p0blnsv7dy,10.0,Seal,Dai,Self,triangle,1804.0,e,mismatch,True
p0blnsv7dy,11.0,Seal,Dai,Self,square,890.0,i,match,True
p0blnsv7dy,12.0,Seal,Dai,Stranger,square,1259.0,e,mismatch,True
p0blnsv7dy,13.0,Seal,Dai,Self,square,1347.0,i,match,True
p0blnsv7dy,14.0,Seal,Dai,Friend,circle,1171.0,e,mismatch,True
p0blnsv7dy,15.0,Seal,Dai,Stranger,square,1380.0,e,mismatch,True
p0blnsv7dy,16.0,Seal,Dai,Stranger,square,876.0,e,mismatch,True
p0blnsv7dy,17.0,Seal,Dai,Stranger,circle,1715.0,i,match,True
p0blnsv7dy,18.0,Seal,Dai,Stranger,triangle,1042.0,e,mismatch,True
p0blnsv7dy,19.0,Seal,Dai,Stranger,triangle,1380.0,e,mismatch,True
p0blnsv7dy,20.0,Seal,Dai,Stranger,square,1027.0,e,mismatch,True
p0blnsv7dy,21.0,Seal,Dai,Self,circle,1141.0,e,mismatch,True
p0blnsv7dy,22.0,Seal,Dai,Stranger,square,1010.0,e,mismatch,True
p0blnsv7dy,23.0,Seal,Dai,Self,circle,924.0,e,mismatch,True
p0blnsv7dy,24.0,Seal,Dai,Friend,circle,1348.0,i,match,False
p0blnsv7dy,25.0,Seal,Dai,Self,square,1573.0,i,match,True
p0blnsv7dy,26.0,Seal,Dai,Self,circle,883.0,e,mismatch,True
p0blnsv7dy,27.0,Seal,Dai,Self,triangle,748.0,e,mismatch,True
p0blnsv7dy,28.0,Seal,Dai,Stranger,triangle,2122.0,i,match,False
p0blnsv7dy,29.0,Seal,Dai,Stranger,circle,940.0,i,match,True
p0blnsv7dy,30.0,Seal,Dai,Stranger,circle,586.0,i,match,True
p0blnsv7dy,31.0,Seal,Dai,Friend,triangle,1915.0,i,match,True
p0blnsv7dy,32.0,Seal,Dai,Self,square,763.0,e,mismatch,False
p0blnsv7dy,33.0,Seal,Dai,Friend,triangle,1659.0,i,match,True
p0blnsv7dy,34.0,Seal,Dai,Friend,square,1099.0,e,mismatch,True
p0blnsv7dy,35.0,Seal,Dai,Self,square,845.0,i,match,True
p0blnsv7dy,36.0,Seal,Dai,Self,triangle,1562.0,e,mismatch,True
p0blnsv7dy,37.0,Seal,Dai,Stranger,circle,2195.0,e,mismatch,False
p0blnsv7dy,38.0,Seal,Dai,Stranger,triangle,1681.0,i,match,False
p0blnsv7dy,39.0,Seal,Dai,Self,square,1107.0,i,match,True
p0blnsv7dy,40.0,Seal,Dai,Friend,triangle,1475.0,e,mismatch,False
p0blnsv7dy,41.0,Seal,Dai,Friend,square,1138.0,e,mismatch,True
p0blnsv7dy,42.0,Seal,Dai,Stranger,circle,1331.0,i,match,True
p0blnsv7dy,43.0,Seal,Dai,Stranger,circle,931.0,i,match,True
p0blnsv7dy,44.0,Seal,Dai,Stranger,circle,484.0,i,match,True
p0blnsv7dy,45.0,Seal,Dai,Stranger,triangle,1203.0,e,mismatch,True
p0blnsv7dy,46.0,Seal,Dai,Friend,square,779.0,i,match,False
p0blnsv7dy,47.0,Seal,Dai,Friend,circle,875.0,i,match,False
p0blnsv7dy,48.0,Seal,Dai,Self,circle,923.0,e,mismatch,True
p0blnsv7dy,49.0,Seal,Dai,Self,square,1099.0,e,mismatch,False
p0blnsv7dy,50.0,Seal,Dai,Friend,circle,1299.0,i,match,False
p0blnsv7dy,51.0,Seal,Dai,Self,circle,1277.0,e,mismatch,True
p0blnsv7dy,52.0,Seal,Dai,Stranger,circle,1548.0,i,match,True
p0blnsv7dy,53.0,Seal,Dai,Self,circle,899.0,e,mismatch,True
p0blnsv7dy,54.0,Seal,Dai,Stranger,triangle,1524.0,e,mismatch,True
p0blnsv7dy,55.0,Seal,Dai,Stranger,circle,827.0,e,mismatch,False
p0blnsv7dy,56.0,Seal,Dai,Self,square,1131.0,i,match,True
p0blnsv7dy,57.0,Seal,Dai,Stranger,triangle,819.0,e,mismatch,True
p0blnsv7dy,58.0,Seal,Dai,Friend,circle,1651.0,i,match,False
p0blnsv7dy,59.0,Seal,Dai,Friend,square,1124.0,e,mismatch,True
p0blnsv7dy,60.0,Seal,Dai,Friend,triangle,1283.0,i,match,True
p0blnsv7dy,61.0,Seal,Dai,Stranger,circle,843.0,e,mismatch,False
p0blnsv7dy,62.0,Seal,Dai,Stranger,triangle,1362.0,e,mismatch,True
p0blnsv7dy,63.0,Seal,Dai,Friend,circle,986.0,i,match,False
p0blnsv7dy,64.0,Seal,Dai,Self,triangle,1444.0,e,mismatch,True
p0blnsv7dy,65.0,Seal,Dai,Friend,triangle,1556.0,i,match,True
p0blnsv7dy,66.0,Seal,Dai,Self,square,1170.0,e,mismatch,False
p0blnsv7dy,67.0,Seal,Dai,Friend,square,1859.0,e,mismatch,True
p0blnsv7dy,68.0,Seal,Dai,Stranger,triangle,1949.0,e,mismatch,True
p0blnsv7dy,69.0,Seal,Dai,Self,square,1051.0,i,match,True
p0blnsv7dy,70.0,Seal,Dai,Friend,circle,1475.0,e,mismatch,True
p0blnsv7dy,71.0,Seal,Dai,Stranger,square,1164.0,e,mismatch,True
p0blnsv7dy,72.0,Seal,Dai,Friend,circle,1331.0,e,mismatch,True
p0blnsv7dy,73.0,Seal,Dai,Friend,circle,1195.0,e,mismatch,True
p0blnsv7dy,74.0,Seal,Dai,Friend,square,1051.0,e,mismatch,True
p0blnsv7dy,75.0,Seal,Dai,Friend,triangle,1147.0,i,match,True
p0blnsv7dy,76.0,Seal,Dai,Friend,circle,923.0,e,mismatch,True
p0blnsv7dy,77.0,Seal,Dai,Friend,triangle,1531.0,i,match,True
p0blnsv7dy,78.0,Seal,Dai,Self,triangle,1627.0,e,mismatch,True
p0blnsv7dy,79.0,Seal,Dai,Self,circle,1307.0,e,mismatch,True
p0blnsv7dy,80.0,Seal,Dai,Stranger,circle,1331.0,e,mismatch,False
p0blnsv7dy,81.0,Seal,Dai,Friend,square,1099.0,e,mismatch,True
p0blnsv7dy,82.0,Seal,Dai,Friend,triangle,948.0,i,match,True
p0blnsv7dy,83.0,Seal,Dai,Stranger,circle,1787.0,i,match,True
p0blnsv7dy,84.0,Seal,Dai,Stranger,circle,659.0,i,match,True
p0blnsv7dy,85.0,Seal,Dai,Self,square,1373.0,i,match,True
p0blnsv7dy,86.0,Seal,Dai,Friend,triangle,627.0,i,match,True
p0blnsv7dy,87.0,Seal,Dai,Friend,triangle,1123.0,i,match,True
p0blnsv7dy,88.0,Seal,Dai,Self,circle,924.0,e,mismatch,True
p0blnsv7dy,89.0,Seal,Dai,Self,circle,746.0,e,mismatch,True
p0blnsv7dy,90.0,Seal,Dai,Friend,square,1155.0,e,mismatch,True
p0blnsv7dy,91.0,Seal,Dai,Stranger,circle,1131.0,i,match,True
p0blnsv7dy,92.0,Seal,Dai,Stranger,square,1092.0,e,mismatch,True
p0blnsv7dy,93.0,Seal,Dai,Stranger,circle,1076.0,i,match,True
p0blnsv7dy,94.0,Seal,Dai,Self,triangle,1179.0,i,match,False
p0blnsv7dy,95.0,Seal,Dai,Stranger,square,1595.0,e,mismatch,True
p0blnsv7dy,96.0,Seal,Dai,Friend,square,1675.0,e,mismatch,True
p0blnsv7dy,97.0,Seal,Dai,Self,triangle,1098.0,e,mismatch,True
p0blnsv7dy,98.0,Seal,Dai,Stranger,triangle,1237.0,e,mismatch,True
p0blnsv7dy,99.0,Seal,Dai,Stranger,triangle,1170.0,e,mismatch,True
p0blnsv7dy,100.0,Seal,Dai,Stranger,triangle,820.0,e,mismatch,True
p0blnsv7dy,101.0,Seal,Dai,Self,triangle,1085.0,e,mismatch,True
p0blnsv7dy,102.0,Seal,Dai,Self,circle,1066.0,e,mismatch,True
p0blnsv7dy,103.0,Seal,Dai,Friend,triangle,1627.0,e,mismatch,False
p0blnsv7dy,104.0,Seal,Dai,Stranger,circle,74.0,i,match,True
p0blnsv7dy,105.0,Seal,Dai,Friend,triangle,1044.0,i,match,True
p0blnsv7dy,106.0,Seal,Dai,Self,circle,676.0,e,mismatch,True
p0blnsv7dy,107.0,Seal,Dai,Stranger,triangle,1140.0,e,mismatch,True
p0blnsv7dy,108.0,Seal,Dai,Friend,triangle,1018.0,i,match,True
p0blnsv7dy,109.0,Seal,Dai,Self,triangle,724.0,i,match,False
p0blnsv7dy,110.0,Seal,Dai,Friend,triangle,987.0,i,match,True
p0blnsv7dy,111.0,Seal,Dai,Self,square,1043.0,e,mismatch,False
p0blnsv7dy,112.0,Seal,Dai,Self,circle,1037.0,e,mismatch,True
p0blnsv7dy,113.0,Seal,Dai,Self,square,1234.0,i,match,True
p0blnsv7dy,114.0,Seal,Dai,Self,circle,1036.0,e,mismatch,True
p0blnsv7dy,115.0,Seal,Dai,Self,triangle,1387.0,e,mismatch,True
p0blnsv7dy,116.0,Seal,Dai,Stranger,triangle,907.0,e,mismatch,True
p0blnsv7dy,117.0,Seal,Dai,Stranger,triangle,1038.0,e,mismatch,True
p0blnsv7dy,118.0,Seal,Dai,Stranger,triangle,1009.0,e,mismatch,True
p0blnsv7dy,119.0,Seal,Dai,Friend,triangle,819.0,i,match,True
p0blnsv7dy,120.0,Seal,Dai,Friend,triangle,996.0,i,match,True
p0blnsv7dy,121.0,Seal,Dai,Self,circle,891.0,e,mismatch,True
p0blnsv7dy,122.0,Seal,Dai,Stranger,circle,1163.0,i,match,True
p0blnsv7dy,123.0,Seal,Dai,Friend,circle,819.0,e,mismatch,True
p0blnsv7dy,124.0,Seal,Dai,Friend,triangle,851.0,i,match,True
p0blnsv7dy,125.0,Seal,Dai,Self,circle,1299.0,e,mismatch,True
p0blnsv7dy,126.0,Seal,Dai,Friend,triangle,684.0,i,match,True
p0blnsv7dy,127.0,Seal,Dai,Self,circle,699.0,e,mismatch,True
p0blnsv7dy,128.0,Seal,Dai,Self,square,1147.0,i,match,True
p0blnsv7dy,129.0,Seal,Dai,Friend,triangle,1219.0,i,match,True
p0blnsv7dy,130.0,Seal,Dai,Stranger,square,1274.0,e,mismatch,True
p0blnsv7dy,131.0,Seal,Dai,Stranger,circle,995.0,i,match,True
p0blnsv7dy,132.0,Seal,Dai,Stranger,square,1043.0,e,mismatch,True
p0blnsv7dy,133.0,Seal,Dai,Friend,square,1299.0,e,mismatch,True
p0blnsv7dy,134.0,Seal,Dai,Self,circle,923.0,e,mismatch,True
p0blnsv7dy,135.0,Seal,Dai,Friend,square,988.0,e,mismatch,True
p0blnsv7dy,136.0,Seal,Dai,Self,circle,931.0,e,mismatch,True
p0blnsv7dy,137.0,Seal,Dai,Self,circle,836.0,e,mismatch,True
p0blnsv7dy,138.0,Seal,Dai,Stranger,circle,1162.0,i,match,True
p0blnsv7dy,139.0,Seal,Dai,Self,circle,900.0,e,mismatch,True
p0blnsv7dy,140.0,Seal,Dai,Stranger,triangle,1205.0,e,mismatch,True
p0blnsv7dy,141.0,Seal,Dai,Friend,triangle,889.0,i,match,True
p0blnsv7dy,142.0,Seal,Dai,Self,square,1467.0,e,mismatch,False
p0blnsv7dy,143.0,Seal,Dai,Friend,triangle,1228.0,i,match,True
p0blnsv7dy,144.0,Seal,Dai,Friend,triangle,651.0,i,match,True
p0blnsv7dy,145.0,Seal,Dai,Self,triangle,1059.0,e,mismatch,True
p0blnsv7dy,146.0,Seal,Dai,Stranger,square,1411.0,e,mismatch,True
p0blnsv7dy,147.0,Seal,Dai,Self,circle,963.0,e,mismatch,True
p0blnsv7dy,148.0,Seal,Dai,Stranger,square,1875.0,e,mismatch,True
p0blnsv7dy,149.0,Seal,Dai,Self,triangle,811.0,e,mismatch,True
p0blnsv7dy,150.0,Seal,Dai,Self,circle,893.0,e,mismatch,True
p0blnsv7dy,151.0,Seal,Dai,Friend,circle,883.0,e,mismatch,True
p0blnsv7dy,152.0,Seal,Dai,Stranger,circle,917.0,i,match,True
p0blnsv7dy,153.0,Seal,Dai,Friend,circle,884.0,e,mismatch,True
p0blnsv7dy,154.0,Seal,Dai,Stranger,triangle,1260.0,e,mismatch,True
p0blnsv7dy,155.0,Seal,Dai,Stranger,circle,1020.0,i,match,True
p0blnsv7dy,156.0,Seal,Dai,Self,triangle,1036.0,e,mismatch,True
p0blnsv7dy,157.0,Seal,Dai,Friend,circle,1037.0,e,mismatch,True
p0blnsv7dy,158.0,Seal,Dai,Self,square,941.0,i,match,True
p0blnsv7dy,159.0,Seal,Dai,Friend,circle,1212.0,e,mismatch,True
p0blnsv7dy,160.0,Seal,Dai,Stranger,square,1516.0,e,mismatch,True
p0blnsv7dy,161.0,Seal,Dai,Stranger,circle,947.0,i,match,True
p0blnsv7dy,162.0,Seal,Dai,Self,triangle,1252.0,e,mismatch,True
p0blnsv7dy,163.0,Seal,Dai,Self,square,971.0,i,match,True
p0blnsv7dy,164.0,Seal,Dai,Stranger,square,1300.0,e,mismatch,True
p0blnsv7dy,165.0,Seal,Dai,Friend,circle,1092.0,e,mismatch,True
p0blnsv7dy,166.0,Seal,Dai,Stranger,triangle,1244.0,e,mismatch,True
p0blnsv7dy,167.0,Seal,Dai,Stranger,circle,1038.0,i,match,True
p0blnsv7dy,168.0,Seal,Dai,Self,triangle,912.0,e,mismatch,True
p0blnsv7dy,169.0,Seal,Dai,Friend,circle,1165.0,e,mismatch,True
p0blnsv7dy,170.0,Seal,Dai,Friend,triangle,820.0,i,match,True
p0blnsv7dy,171.0,Seal,Dai,Self,square,1147.0,i,match,True
p0blnsv7dy,172.0,Seal,Dai,Friend,circle,1124.0,e,mismatch,True
p0blnsv7dy,173.0,Seal,Dai,Stranger,square,1531.0,e,mismatch,True
p0blnsv7dy,174.0,Seal,Dai,Friend,triangle,907.0,i,match,True
p0blnsv7dy,175.0,Seal,Dai,Stranger,square,1291.0,e,mismatch,True
p0blnsv7dy,176.0,Seal,Dai,Stranger,circle,763.0,i,match,True
p0blnsv7dy,177.0,Seal,Dai,Self,circle,1067.0,e,mismatch,True
p0blnsv7dy,178.0,Seal,Dai,Stranger,triangle,1699.0,e,mismatch,True
p0blnsv7dy,179.0,Seal,Dai,Friend,triangle,667.0,i,match,True
p0blnsv7dy,180.0,Seal,Dai,Stranger,circle,987.0,i,match,True
p0blnsv7dy,181.0,Seal,Dai,Friend,circle,763.0,e,mismatch,True
p0blnsv7dy,182.0,Seal,Dai,Friend,square,1058.0,e,mismatch,True
p0blnsv7dy,183.0,Seal,Dai,Self,square,699.0,i,match,True
p0blnsv7dy,184.0,Seal,Dai,Self,square,687.0,i,match,True
p0blnsv7dy,185.0,Seal,Dai,Stranger,triangle,1106.0,e,mismatch,True
p0blnsv7dy,186.0,Seal,Dai,Stranger,triangle,851.0,e,mismatch,True
p0blnsv7dy,187.0,Seal,Dai,Self,triangle,1411.0,e,mismatch,True
p0blnsv7dy,188.0,Seal,Dai,Friend,square,987.0,e,mismatch,True
p0blnsv7dy,189.0,Seal,Dai,Stranger,square,939.0,e,mismatch,True
p0blnsv7dy,190.0,Seal,Dai,Stranger,triangle,908.0,e,mismatch,True
p0blnsv7dy,191.0,Seal,Dai,Self,triangle,843.0,e,mismatch,True
p0blnsv7dy,192.0,Seal,Dai,Friend,circle,1005.0,e,mismatch,True
p0blnsv7dy,193.0,Seal,Dai,Self,square,867.0,i,match,True
p0blnsv7dy,194.0,Seal,Dai,Self,square,1156.0,i,match,True
p0blnsv7dy,195.0,Seal,Dai,Stranger,square,875.0,e,mismatch,True
p0blnsv7dy,196.0,Seal,Dai,Friend,square,995.0,e,mismatch,True
p0blnsv7dy,197.0,Seal,Dai,Self,square,835.0,e,mismatch,False
p0blnsv7dy,198.0,Seal,Dai,Friend,circle,1259.0,e,mismatch,True
p0blnsv7dy,199.0,Seal,Dai,Self,triangle,907.0,e,mismatch,True
p0blnsv7dy,200.0,Seal,Dai,Self,circle,843.0,e,mismatch,True
p0blnsv7dy,201.0,Seal,Dai,Friend,square,843.0,e,mismatch,True
p0blnsv7dy,202.0,Seal,Dai,Friend,square,810.0,e,mismatch,True
p0blnsv7dy,203.0,Seal,Dai,Friend,square,685.0,e,mismatch,True
p0blnsv7dy,204.0,Seal,Dai,Self,square,532.0,e,mismatch,False
p0blnsv7dy,205.0,Seal,Dai,Self,triangle,938.0,e,mismatch,True
p0blnsv7dy,206.0,Seal,Dai,Self,triangle,1380.0,e,mismatch,True
p0blnsv7dy,207.0,Seal,Dai,Stranger,square,1028.0,e,mismatch,True
p0blnsv7dy,208.0,Seal,Dai,Stranger,square,795.0,e,mismatch,True
p0blnsv7dy,209.0,Seal,Dai,Friend,square,899.0,e,mismatch,True
p0blnsv7dy,210.0,Seal,Dai,Stranger,square,875.0,e,mismatch,True
p0blnsv7dy,211.0,Seal,Dai,Friend,square,1075.0,e,mismatch,True
p0blnsv7dy,212.0,Seal,Dai,Self,circle,907.0,e,mismatch,True
p0blnsv7dy,213.0,Seal,Dai,Self,circle,779.0,e,mismatch,True
p0blnsv7dy,214.0,Seal,Dai,Friend,circle,963.0,e,mismatch,True
p0blnsv7dy,215.0,Seal,Dai,Stranger,triangle,1059.0,e,mismatch,True
p0blnsv7dy,216.0,Seal,Dai,Self,circle,900.0,e,mismatch,True
p0blnsv7dy,217.0,Seal,Dai,Friend,triangle,923.0,i,match,True
p0blnsv7dy,218.0,Seal,Dai,Self,triangle,979.0,e,mismatch,True
p0blnsv7dy,219.0,Seal,Dai,Stranger,square,1235.0,e,mismatch,True
p0blnsv7dy,220.0,Seal,Dai,Friend,circle,1147.0,e,mismatch,True
p0blnsv7dy,221.0,Seal,Dai,Self,triangle,956.0,e,mismatch,True
p0blnsv7dy,222.0,Seal,Dai,Stranger,triangle,1084.0,e,mismatch,True
p0blnsv7dy,223.0,Seal,Dai,Self,triangle,781.0,e,mismatch,True
p0blnsv7dy,224.0,Seal,Dai,Stranger,triangle,797.0,e,mismatch,True
p0blnsv7dy,225.0,Seal,Dai,Stranger,circle,778.0,i,match,True
p0blnsv7dy,226.0,Seal,Dai,Stranger,triangle,844.0,i,match,False
p0blnsv7dy,227.0,Seal,Dai,Stranger,circle,1115.0,i,match,True
p0blnsv7dy,228.0,Seal,Dai,Friend,square,1123.0,e,mismatch,True
p0blnsv7dy,229.0,Seal,Dai,Stranger,triangle,971.0,e,mismatch,True
p0blnsv7dy,230.0,Seal,Dai,Self,square,979.0,i,match,True
p0blnsv7dy,231.0,Seal,Dai,Self,circle,1125.0,e,mismatch,True
p0blnsv7dy,232.0,Seal,Dai,Friend,square,1019.0,e,mismatch,True
p0blnsv7dy,233.0,Seal,Dai,Friend,circle,1155.0,i,match,False
p0blnsv7dy,234.0,Seal,Dai,Self,triangle,1124.0,e,mismatch,True
p0blnsv7dy,235.0,Seal,Dai,Self,triangle,1068.0,e,mismatch,True
p0blnsv7dy,236.0,Seal,Dai,Self,circle,827.0,e,mismatch,True
p0blnsv7dy,237.0,Seal,Dai,Friend,triangle,1059.0,i,match,True
p0blnsv7dy,238.0,Seal,Dai,Friend,square,1043.0,e,mismatch,True
p0blnsv7dy,239.0,Seal,Dai,Friend,triangle,692.0,e,mismatch,False
p0blnsv7dy,240.0,Seal,Dai,Stranger,circle,860.0,i,match,True
p0blnsv7dy,241.0,Seal,Dai,Self,triangle,843.0,e,mismatch,True
p0blnsv7dy,242.0,Seal,Dai,Stranger,square,923.0,e,mismatch,True
p0blnsv7dy,243.0,Seal,Dai,Stranger,square,963.0,e,mismatch,True
p0blnsv7dy,244.0,Seal,Dai,Friend,square,1020.0,e,mismatch,True
p0blnsv7dy,245.0,Seal,Dai,Friend,square,868.0,e,mismatch,True
p0blnsv7dy,246.0,Seal,Dai,Stranger,square,898.0,e,mismatch,True
p0blnsv7dy,247.0,Seal,Dai,Friend,circle,1011.0,e,mismatch,True
p0blnsv7dy,248.0,Seal,Dai,Friend,triangle,835.0,i,match,True
p0blnsv7dy,249.0,Seal,Dai,Stranger,square,843.0,e,mismatch,True
p0blnsv7dy,250.0,Seal,Dai,Self,triangle,995.0,e,mismatch,True
p0blnsv7dy,251.0,Seal,Dai,Friend,triangle,867.0,i,match,True
p0blnsv7dy,252.0,Seal,Dai,Friend,triangle,883.0,i,match,True
p0blnsv7dy,253.0,Seal,Dai,Friend,circle,1051.0,e,mismatch,True
p0blnsv7dy,254.0,Seal,Dai,Friend,triangle,803.0,i,match,True
p0blnsv7dy,255.0,Seal,Dai,Friend,circle,747.0,e,mismatch,True
p0blnsv7dy,256.0,Seal,Dai,Self,circle,1148.0,e,mismatch,True
p0blnsv7dy,257.0,Seal,Dai,Self,square,669.0,i,match,True
p0blnsv7dy,258.0,Seal,Dai,Friend,square,915.0,e,mismatch,True
p0blnsv7dy,259.0,Seal,Dai,Friend,square,1051.0,e,mismatch,True
p0blnsv7dy,260.0,Seal,Dai,Stranger,square,884.0,e,mismatch,True
p0blnsv7dy,261.0,Seal,Dai,Self,circle,860.0,e,mismatch,True
p0blnsv7dy,262.0,Seal,Dai,Stranger,square,1051.0,e,mismatch,True
p0blnsv7dy,263.0,Seal,Dai,Friend,triangle,804.0,i,match,True
p0blnsv7dy,264.0,Seal,Dai,Self,circle,1123.0,e,mismatch,True
p0blnsv7dy,265.0,Seal,Dai,Stranger,square,827.0,e,mismatch,True
p0blnsv7dy,266.0,Seal,Dai,Self,triangle,875.0,e,mismatch,True
p0blnsv7dy,267.0,Seal,Dai,Self,circle,851.0,e,mismatch,True
p0blnsv7dy,268.0,Seal,Dai,Self,circle,859.0,e,mismatch,True
p0blnsv7dy,269.0,Seal,Dai,Friend,square,1051.0,e,mismatch,True
p0blnsv7dy,270.0,Seal,Dai,Stranger,square,843.0,e,mismatch,True
p0blnsv7dy,271.0,Seal,Dai,Friend,square,683.0,e,mismatch,True
p0blnsv7dy,272.0,Seal,Dai,Friend,square,651.0,e,mismatch,True
p0blnsv7dy,273.0,Seal,Dai,Friend,square,547.0,e,mismatch,True
p0blnsv7dy,274.0,Seal,Dai,Friend,triangle,739.0,i,match,True
p0blnsv7dy,275.0,Seal,Dai,Self,square,1092.0,i,match,True
p0blnsv7dy,276.0,Seal,Dai,Stranger,circle,771.0,i,match,True
p0blnsv7dy,277.0,Seal,Dai,Self,circle,748.0,e,mismatch,True
p0blnsv7dy,278.0,Seal,Dai,Stranger,triangle,1189.0,e,mismatch,True
p0blnsv7dy,279.0,Seal,Dai,Stranger,triangle,971.0,e,mismatch,True
p0blnsv7dy,280.0,Seal,Dai,Friend,square,811.0,e,mismatch,True
p0blnsv7dy,281.0,Seal,Dai,Stranger,square,635.0,e,mismatch,True
p0blnsv7dy,282.0,Seal,Dai,Self,square,723.0,i,match,True
p0blnsv7dy,283.0,Seal,Dai,Self,square,738.0,i,match,True
p0blnsv7dy,284.0,Seal,Dai,Stranger,circle,1132.0,i,match,True
p0blnsv7dy,285.0,Seal,Dai,Friend,circle,836.0,e,mismatch,True
p0blnsv7dy,286.0,Seal,Dai,Stranger,square,1036.0,e,mismatch,True
p0blnsv7dy,287.0,Seal,Dai,Self,triangle,723.0,i,match,False
p0blnsv7dy,288.0,Seal,Dai,Friend,circle,939.0,e,mismatch,True
p0blnsv7dy,289.0,Seal,Dai,Stranger,triangle,947.0,e,mismatch,True
p0blnsv7dy,290.0,Seal,Dai,Self,square,787.0,i,match,True
p0blnsv7dy,291.0,Seal,Dai,Stranger,triangle,1043.0,e,mismatch,True
p0blnsv7dy,292.0,Seal,Dai,Self,triangle,756.0,e,mismatch,True
p0blnsv7dy,293.0,Seal,Dai,Stranger,circle,891.0,i,match,True
p0blnsv7dy,294.0,Seal,Dai,Stranger,circle,770.0,i,match,True
p0blnsv7dy,295.0,Seal,Dai,Self,triangle,813.0,e,mismatch,True
p0blnsv7dy,296.0,Seal,Dai,Self,square,794.0,i,match,True
p0blnsv7dy,297.0,Seal,Dai,Stranger,triangle,836.0,e,mismatch,True
p0blnsv7dy,298.0,Seal,Dai,Stranger,circle,786.0,i,match,True
p0blnsv7dy,299.0,Seal,Dai,Self,square,909.0,i,match,True
p0blnsv7dy,300.0,Seal,Dai,Friend,circle,771.0,e,mismatch,True
p0blnsv7dy,301.0,Seal,Dai,Stranger,square,1139.0,e,mismatch,True
p0blnsv7dy,302.0,Seal,Dai,Stranger,triangle,788.0,e,mismatch,True
p0blnsv7dy,303.0,Seal,Dai,Self,square,739.0,i,match,True
p0blnsv7dy,304.0,Seal,Dai,Stranger,triangle,701.0,e,mismatch,True
p0blnsv7dy,305.0,Seal,Dai,Friend,triangle,850.0,i,match,True
p0blnsv7dy,306.0,Seal,Dai,Friend,square,779.0,e,mismatch,True
p0blnsv7dy,307.0,Seal,Dai,Self,triangle,1107.0,e,mismatch,True
p0blnsv7dy,308.0,Seal,Dai,Stranger,circle,803.0,i,match,True
p0blnsv7dy,309.0,Seal,Dai,Friend,square,1155.0,e,mismatch,True
p0blnsv7dy,310.0,Seal,Dai,Stranger,circle,763.0,i,match,True
p0blnsv7dy,311.0,Seal,Dai,Stranger,square,851.0,e,mismatch,True
p0blnsv7dy,312.0,Seal,Dai,Friend,circle,906.0,e,mismatch,True
p0blnsv7dy,313.0,Seal,Dai,Self,triangle,885.0,e,mismatch,True
p0blnsv7dy,314.0,Seal,Dai,Self,triangle,1098.0,e,mismatch,True
p0blnsv7dy,315.0,Seal,Dai,Stranger,triangle,819.0,e,mismatch,True
p0blnsv7dy,316.0,Seal,Dai,Stranger,square,845.0,e,mismatch,True
p0blnsv7dy,317.0,Seal,Dai,Friend,triangle,835.0,i,match,True
p0blnsv7dy,318.0,Seal,Dai,Self,square,1058.0,i,match,True
p0blnsv7dy,319.0,Seal,Dai,Self,square,989.0,i,match,True
p0blnsv7dy,320.0,Seal,Dai,Stranger,circle,891.0,i,match,True
p0blnsv7dy,321.0,Seal,Dai,Friend,circle,779.0,e,mismatch,True
p0blnsv7dy,322.0,Seal,Dai,Friend,square,947.0,e,mismatch,True
p0blnsv7dy,323.0,Seal,Dai,Friend,circle,779.0,e,mismatch,True
p0blnsv7dy,324.0,Seal,Dai,Friend,square,675.0,e,mismatch,True
f6cmay5gj4,1.0,Sting,LOUIS,Stranger,cercle,,,,False
f6cmay5gj4,2.0,Sting,LOUIS,Friend,carr,1283.0,i,match,False
f6cmay5gj4,3.0,Sting,LOUIS,Self,cercle,835.0,e,mismatch,True
f6cmay5gj4,4.0,Sting,LOUIS,Stranger,cercle,1066.0,i,match,False
f6cmay5gj4,5.0,Sting,LOUIS,Friend,triangle,771.0,e,mismatch,True
f6cmay5gj4,6.0,Sting,LOUIS,Friend,carr,1107.0,i,match,False
f6cmay5gj4,7.0,Sting,LOUIS,Friend,triangle,691.0,i,match,False
f6cmay5gj4,8.0,Sting,LOUIS,Self,cercle,328.0,e,mismatch,True
f6cmay5gj4,9.0,Sting,LOUIS,Self,cercle,495.0,e,mismatch,True
f6cmay5gj4,10.0,Sting,LOUIS,Stranger,triangle,1010.0,i,match,True
f6cmay5gj4,11.0,Sting,LOUIS,Self,cercle,1212.0,e,mismatch,True
f6cmay5gj4,12.0,Sting,LOUIS,Stranger,carr,821.0,i,match,False
f6cmay5gj4,13.0,Sting,LOUIS,Stranger,cercle,2077.0,e,mismatch,True
f6cmay5gj4,14.0,Sting,LOUIS,Friend,cercle,1446.0,e,mismatch,False
f6cmay5gj4,15.0,Sting,LOUIS,Friend,triangle,298.0,i,match,False
f6cmay5gj4,16.0,Sting,LOUIS,Self,triangle,1533.0,e,mismatch,True
f6cmay5gj4,17.0,Sting,LOUIS,Stranger,triangle,450.0,i,match,True
f6cmay5gj4,18.0,Sting,LOUIS,Stranger,cercle,395.0,e,mismatch,True
f6cmay5gj4,19.0,Sting,LOUIS,Self,cercle,1747.0,i,match,False
f6cmay5gj4,20.0,Sting,LOUIS,Stranger,triangle,339.0,e,mismatch,False
f6cmay5gj4,21.0,Sting,LOUIS,Self,triangle,31.0,e,mismatch,True
f6cmay5gj4,22.0,Sting,LOUIS,Stranger,cercle,1160.0,e,mismatch,True
f6cmay5gj4,23.0,Sting,LOUIS,Self,carr,1817.0,i,match,True
f6cmay5gj4,24.0,Sting,LOUIS,Stranger,cercle,1642.0,i,match,False
f6cmay5gj4,25.0,Sting,LOUIS,Friend,triangle,1426.0,e,mismatch,True
f6cmay5gj4,26.0,Sting,LOUIS,Self,carr,1410.0,e,mismatch,False
f6cmay5gj4,27.0,Sting,LOUIS,Stranger,cercle,353.0,e,mismatch,True
f6cmay5gj4,28.0,Sting,LOUIS,Self,carr,3465.0,e,mismatch,False
f6cmay5gj4,29.0,Sting,LOUIS,Friend,cercle,1838.0,i,match,True
f6cmay5gj4,30.0,Sting,LOUIS,Friend,triangle,2754.0,i,match,False
f6cmay5gj4,31.0,Sting,LOUIS,Stranger,triangle,1059.0,i,match,True
f6cmay5gj4,32.0,Sting,LOUIS,Self,triangle,1757.0,e,mismatch,True
f6cmay5gj4,33.0,Sting,LOUIS,Self,cercle,1831.0,e,mismatch,True
f6cmay5gj4,34.0,Sting,LOUIS,Stranger,carr,1250.0,e,mismatch,True
f6cmay5gj4,35.0,Sting,LOUIS,Self,triangle,1103.0,i,match,False
f6cmay5gj4,36.0,Sting,LOUIS,Self,carr,514.0,e,mismatch,False
f6cmay5gj4,37.0,Sting,LOUIS,Friend,cercle,5.0,e,mismatch,False
f6cmay5gj4,38.0,Sting,LOUIS,Friend,carr,758.0,i,match,False
f6cmay5gj4,39.0,Sting,LOUIS,Self,carr,962.0,e,mismatch,False
f6cmay5gj4,40.0,Sting,LOUIS,Stranger,triangle,876.0,i,match,True
f6cmay5gj4,41.0,Sting,LOUIS,Friend,cercle,1452.0,i,match,True
f6cmay5gj4,42.0,Sting,LOUIS,Stranger,cercle,912.0,i,match,False
f6cmay5gj4,43.0,Sting,LOUIS,Self,triangle,564.0,e,mismatch,True
f6cmay5gj4,44.0,Sting,LOUIS,Self,triangle,1472.0,e,mismatch,True
f6cmay5gj4,45.0,Sting,LOUIS,Stranger,triangle,947.0,e,mismatch,False
f6cmay5gj4,46.0,Sting,LOUIS,Self,carr,330.0,i,match,True
f6cmay5gj4,47.0,Sting,LOUIS,Stranger,triangle,920.0,i,match,True
f6cmay5gj4,48.0,Sting,LOUIS,Friend,cercle,759.0,e,mismatch,False
f6cmay5gj4,49.0,Sting,LOUIS,Friend,triangle,1476.0,e,mismatch,True
f6cmay5gj4,50.0,Sting,LOUIS,Stranger,triangle,1852.0,e,mismatch,False
f6cmay5gj4,51.0,Sting,LOUIS,Stranger,triangle,1153.0,e,mismatch,False
f6cmay5gj4,52.0,Sting,LOUIS,Stranger,triangle,671.0,e,mismatch,False
f6cmay5gj4,53.0,Sting,LOUIS,Self,triangle,406.0,i,match,False
f6cmay5gj4,54.0,Sting,LOUIS,Friend,carr,1902.0,i,match,False
f6cmay5gj4,55.0,Sting,LOUIS,Friend,triangle,2168.0,e,mismatch,True
f6cmay5gj4,56.0,Sting,LOUIS,Self,cercle,1982.0,e,mismatch,True
f6cmay5gj4,57.0,Sting,LOUIS,Self,triangle,1431.0,i,match,False
f6cmay5gj4,58.0,Sting,LOUIS,Stranger,carr,1467.0,i,match,False
f6cmay5gj4,59.0,Sting,LOUIS,Self,cercle,589.0,e,mismatch,True
f6cmay5gj4,60.0,Sting,LOUIS,Stranger,carr,861.0,e,mismatch,True
f6cmay5gj4,61.0,Sting,LOUIS,Self,carr,1921.0,i,match,True
f6cmay5gj4,62.0,Sting,LOUIS,Friend,cercle,929.0,i,match,True
f6cmay5gj4,63.0,Sting,LOUIS,Friend,triangle,976.0,e,mismatch,True
f6cmay5gj4,64.0,Sting,LOUIS,Self,triangle,1251.0,i,match,False
f6cmay5gj4,65.0,Sting,LOUIS,Friend,triangle,2383.0,e,mismatch,True
f6cmay5gj4,66.0,Sting,LOUIS,Self,carr,343.0,e,mismatch,False
f6cmay5gj4,67.0,Sting,LOUIS,Stranger,triangle,246.0,i,match,True
f6cmay5gj4,68.0,Sting,LOUIS,Self,triangle,1169.0,e,mismatch,True
f6cmay5gj4,69.0,Sting,LOUIS,Friend,cercle,1081.0,e,mismatch,False
f6cmay5gj4,70.0,Sting,LOUIS,Self,triangle,1688.0,i,match,False
f6cmay5gj4,71.0,Sting,LOUIS,Friend,cercle,866.0,i,match,True
f6cmay5gj4,72.0,Sting,LOUIS,Stranger,carr,1438.0,e,mismatch,True
f6cmay5gj4,73.0,Sting,LOUIS,Stranger,triangle,1507.0,i,match,True
f6cmay5gj4,74.0,Sting,LOUIS,Stranger,cercle,1756.0,e,mismatch,True
f6cmay5gj4,75.0,Sting,LOUIS,Self,carr,624.0,e,mismatch,False
f6cmay5gj4,76.0,Sting,LOUIS,Self,cercle,1387.0,i,match,False
f6cmay5gj4,77.0,Sting,LOUIS,Self,triangle,1082.0,i,match,False
f6cmay5gj4,78.0,Sting,LOUIS,Self,cercle,1519.0,e,mismatch,True
f6cmay5gj4,79.0,Sting,LOUIS,Self,carr,937.0,e,mismatch,False
f6cmay5gj4,80.0,Sting,LOUIS,Friend,cercle,197.0,i,match,True
f6cmay5gj4,81.0,Sting,LOUIS,Friend,carr,890.0,e,mismatch,True
f6cmay5gj4,82.0,Sting,LOUIS,Self,carr,513.0,e,mismatch,False
f6cmay5gj4,83.0,Sting,LOUIS,Stranger,cercle,357.0,e,mismatch,True
f6cmay5gj4,84.0,Sting,LOUIS,Self,carr,300.0,e,mismatch,False
f6cmay5gj4,85.0,Sting,LOUIS,Stranger,carr,226.0,e,mismatch,True
f6cmay5gj4,86.0,Sting,LOUIS,Self,cercle,151.0,i,match,False
f6cmay5gj4,87.0,Sting,LOUIS,Self,cercle,153.0,e,mismatch,True
f6cmay5gj4,88.0,Sting,LOUIS,Self,carr,454.0,e,mismatch,False
f6cmay5gj4,89.0,Sting,LOUIS,Self,triangle,351.0,i,match,False
f6cmay5gj4,90.0,Sting,LOUIS,Stranger,carr,409.0,i,match,False
f6cmay5gj4,91.0,Sting,LOUIS,Stranger,triangle,434.0,e,mismatch,False
f6cmay5gj4,92.0,Sting,LOUIS,Stranger,carr,742.0,i,match,False
f6cmay5gj4,93.0,Sting,LOUIS,Self,carr,300.0,e,mismatch,False
f6cmay5gj4,94.0,Sting,LOUIS,Friend,triangle,418.0,i,match,False
f6cmay5gj4,95.0,Sting,LOUIS,Self,cercle,1258.0,e,mismatch,True
f6cmay5gj4,96.0,Sting,LOUIS,Stranger,triangle,576.0,e,mismatch,False
f6cmay5gj4,97.0,Sting,LOUIS,Friend,carr,111.0,e,mismatch,True
f6cmay5gj4,98.0,Sting,LOUIS,Self,triangle,3075.0,e,mismatch,True
f6cmay5gj4,99.0,Sting,LOUIS,Friend,carr,640.0,i,match,False
f6cmay5gj4,100.0,Sting,LOUIS,Stranger,triangle,103.0,e,mismatch,False
f6cmay5gj4,101.0,Sting,LOUIS,Friend,carr,677.0,e,mismatch,True
f6cmay5gj4,102.0,Sting,LOUIS,Friend,cercle,470.0,e,mismatch,False
f6cmay5gj4,103.0,Sting,LOUIS,Stranger,carr,66.0,i,match,False
f6cmay5gj4,104.0,Sting,LOUIS,Self,carr,432.0,i,match,True
f6cmay5gj4,105.0,Sting,LOUIS,Friend,triangle,274.0,e,mismatch,True
f6cmay5gj4,106.0,Sting,LOUIS,Stranger,carr,299.0,e,mismatch,True
f6cmay5gj4,107.0,Sting,LOUIS,Self,carr,472.0,e,mismatch,False
f6cmay5gj4,108.0,Sting,LOUIS,Self,cercle,17.0,i,match,False
f6cmay5gj4,109.0,Sting,LOUIS,Stranger,carr,697.0,e,mismatch,True
f6cmay5gj4,110.0,Sting,LOUIS,Self,carr,232.0,i,match,True
f6cmay5gj4,111.0,Sting,LOUIS,Self,carr,465.0,i,match,True
f6cmay5gj4,112.0,Sting,LOUIS,Stranger,cercle,240.0,e,mismatch,True
f6cmay5gj4,113.0,Sting,LOUIS,Friend,carr,624.0,i,match,False
f6cmay5gj4,114.0,Sting,LOUIS,Stranger,cercle,328.0,i,match,False
f6cmay5gj4,115.0,Sting,LOUIS,Friend,cercle,512.0,e,mismatch,False
f6cmay5gj4,116.0,Sting,LOUIS,Friend,cercle,181.0,e,mismatch,False
f6cmay5gj4,117.0,Sting,LOUIS,Stranger,cercle,136.0,e,mismatch,True
f6cmay5gj4,118.0,Sting,LOUIS,Self,cercle,152.0,i,match,False
f6cmay5gj4,119.0,Sting,LOUIS,Stranger,cercle,146.0,i,match,False
f6cmay5gj4,120.0,Sting,LOUIS,Self,cercle,221.0,i,match,False
f6cmay5gj4,121.0,Sting,LOUIS,Stranger,triangle,748.0,e,mismatch,False
f6cmay5gj4,122.0,Sting,LOUIS,Friend,triangle,441.0,e,mismatch,True
f6cmay5gj4,123.0,Sting,LOUIS,Stranger,carr,493.0,i,match,False
f6cmay5gj4,124.0,Sting,LOUIS,Stranger,triangle,548.0,e,mismatch,False
f6cmay5gj4,125.0,Sting,LOUIS,Self,cercle,3193.0,i,match,False
f6cmay5gj4,126.0,Sting,LOUIS,Friend,carr,1412.0,i,match,False
f6cmay5gj4,127.0,Sting,LOUIS,Self,cercle,1661.0,e,mismatch,True
f6cmay5gj4,128.0,Sting,LOUIS,Friend,cercle,453.0,i,match,True
f6cmay5gj4,129.0,Sting,LOUIS,Self,carr,2468.0,i,match,True
f6cmay5gj4,130.0,Sting,LOUIS,Stranger,carr,788.0,i,match,False
f6cmay5gj4,131.0,Sting,LOUIS,Friend,carr,1357.0,e,mismatch,True
f6cmay5gj4,132.0,Sting,LOUIS,Self,carr,237.0,e,mismatch,False
f6cmay5gj4,133.0,Sting,LOUIS,Stranger,cercle,524.0,e,mismatch,True
f6cmay5gj4,134.0,Sting,LOUIS,Self,carr,92.0,i,match,True
f6cmay5gj4,135.0,Sting,LOUIS,Self,cercle,268.0,i,match,False
f6cmay5gj4,136.0,Sting,LOUIS,Stranger,carr,1016.0,i,match,False
f6cmay5gj4,137.0,Sting,LOUIS,Self,cercle,391.0,e,mismatch,True
f6cmay5gj4,138.0,Sting,LOUIS,Stranger,carr,1726.0,e,mismatch,True
f6cmay5gj4,139.0,Sting,LOUIS,Stranger,triangle,345.0,i,match,True
f6cmay5gj4,140.0,Sting,LOUIS,Self,cercle,1690.0,e,mismatch,True
f6cmay5gj4,141.0,Sting,LOUIS,Stranger,cercle,131.0,i,match,False
f6cmay5gj4,142.0,Sting,LOUIS,Stranger,cercle,47.0,i,match,False
f6cmay5gj4,143.0,Sting,LOUIS,Friend,cercle,1573.0,i,match,True
f6cmay5gj4,144.0,Sting,LOUIS,Friend,cercle,1051.0,e,mismatch,False
f6cmay5gj4,145.0,Sting,LOUIS,Friend,triangle,188.0,i,match,False
f6cmay5gj4,146.0,Sting,LOUIS,Stranger,cercle,521.0,i,match,False
f6cmay5gj4,147.0,Sting,LOUIS,Stranger,cercle,219.0,i,match,False
f6cmay5gj4,148.0,Sting,LOUIS,Stranger,cercle,55.0,i,match,False
f6cmay5gj4,149.0,Sting,LOUIS,Self,cercle,99.0,e,mismatch,True
f6cmay5gj4,150.0,Sting,LOUIS,Self,cercle,712.0,e,mismatch,True
f6cmay5gj4,151.0,Sting,LOUIS,Stranger,carr,182.0,e,mismatch,True
f6cmay5gj4,152.0,Sting,LOUIS,Stranger,triangle,1989.0,i,match,True
f6cmay5gj4,153.0,Sting,LOUIS,Friend,carr,38.0,e,mismatch,True
f6cmay5gj4,154.0,Sting,LOUIS,Self,triangle,544.0,i,match,False
f6cmay5gj4,155.0,Sting,LOUIS,Friend,cercle,1743.0,e,mismatch,False
f6cmay5gj4,156.0,Sting,LOUIS,Self,carr,328.0,e,mismatch,False
f6cmay5gj4,157.0,Sting,LOUIS,Stranger,carr,191.0,e,mismatch,True
f6cmay5gj4,158.0,Sting,LOUIS,Stranger,carr,23.0,i,match,False
f6cmay5gj4,159.0,Sting,LOUIS,Self,triangle,19.0,e,mismatch,True
f6cmay5gj4,160.0,Sting,LOUIS,Friend,cercle,12.0,e,mismatch,False
f6cmay5gj4,161.0,Sting,LOUIS,Self,cercle,23.0,i,match,False
f6cmay5gj4,162.0,Sting,LOUIS,Friend,triangle,46.0,i,match,False
f6cmay5gj4,163.0,Sting,LOUIS,Friend,cercle,1151.0,e,mismatch,False
f6cmay5gj4,164.0,Sting,LOUIS,Self,triangle,3.0,e,mismatch,True
f6cmay5gj4,165.0,Sting,LOUIS,Stranger,cercle,18.0,e,mismatch,True
f6cmay5gj4,166.0,Sting,LOUIS,Self,carr,104.0,e,mismatch,False
f6cmay5gj4,167.0,Sting,LOUIS,Friend,triangle,41.0,i,match,False
f6cmay5gj4,168.0,Sting,LOUIS,Friend,triangle,17.0,e,mismatch,True
f6cmay5gj4,169.0,Sting,LOUIS,Friend,carr,11.0,i,match,False
f6cmay5gj4,170.0,Sting,LOUIS,Friend,cercle,36.0,i,match,True
f6cmay5gj4,171.0,Sting,LOUIS,Self,triangle,8.0,i,match,False
f6cmay5gj4,172.0,Sting,LOUIS,Stranger,triangle,58.0,i,match,True
f6cmay5gj4,173.0,Sting,LOUIS,Friend,carr,750.0,i,match,False
f6cmay5gj4,174.0,Sting,LOUIS,Stranger,cercle,350.0,e,mismatch,True
f6cmay5gj4,175.0,Sting,LOUIS,Self,carr,220.0,i,match,True
f6cmay5gj4,176.0,Sting,LOUIS,Stranger,carr,589.0,i,match,False
f6cmay5gj4,177.0,Sting,LOUIS,Friend,cercle,218.0,i,match,True
f6cmay5gj4,178.0,Sting,LOUIS,Friend,cercle,6.0,i,match,True
f6cmay5gj4,179.0,Sting,LOUIS,Stranger,carr,62.0,e,mismatch,True
f6cmay5gj4,180.0,Sting,LOUIS,Self,cercle,62.0,e,mismatch,True
f6cmay5gj4,181.0,Sting,LOUIS,Stranger,carr,141.0,i,match,False
f6cmay5gj4,182.0,Sting,LOUIS,Friend,cercle,15.0,i,match,True
f6cmay5gj4,183.0,Sting,LOUIS,Stranger,carr,105.0,i,match,False
f6cmay5gj4,184.0,Sting,LOUIS,Friend,carr,34.0,e,mismatch,True
f6cmay5gj4,185.0,Sting,LOUIS,Friend,cercle,127.0,e,mismatch,False
f6cmay5gj4,186.0,Sting,LOUIS,Stranger,carr,129.0,e,mismatch,True
f6cmay5gj4,187.0,Sting,LOUIS,Self,triangle,2.0,e,mismatch,True
f6cmay5gj4,188.0,Sting,LOUIS,Stranger,triangle,,,,False
f6cmay5gj4,189.0,Sting,LOUIS,Stranger,triangle,,,,False
f6cmay5gj4,190.0,Sting,LOUIS,Stranger,cercle,1806.0,i,match,False
f6cmay5gj4,191.0,Sting,LOUIS,Stranger,triangle,55.0,i,match,True
f6cmay5gj4,192.0,Sting,LOUIS,Stranger,carr,101.0,i,match,False
f6cmay5gj4,193.0,Sting,LOUIS,Stranger,triangle,350.0,e,mismatch,False
f6cmay5gj4,194.0,Sting,LOUIS,Stranger,cercle,444.0,e,mismatch,True
f6cmay5gj4,195.0,Sting,LOUIS,Friend,carr,232.0,i,match,False
f6cmay5gj4,196.0,Sting,LOUIS,Stranger,cercle,576.0,i,match,False
f6cmay5gj4,197.0,Sting,LOUIS,Friend,cercle,52.0,i,match,True
f6cmay5gj4,198.0,Sting,LOUIS,Friend,cercle,271.0,e,mismatch,False
f6cmay5gj4,199.0,Sting,LOUIS,Friend,cercle,22.0,e,mismatch,False
f6cmay5gj4,200.0,Sting,LOUIS,Stranger,carr,38.0,e,mismatch,True
f6cmay5gj4,201.0,Sting,LOUIS,Friend,cercle,224.0,e,mismatch,False
f6cmay5gj4,202.0,Sting,LOUIS,Self,carr,40.0,i,match,True
f6cmay5gj4,203.0,Sting,LOUIS,Friend,carr,175.0,i,match,False
f6cmay5gj4,204.0,Sting,LOUIS,Self,carr,236.0,e,mismatch,False
f6cmay5gj4,205.0,Sting,LOUIS,Friend,triangle,203.0,i,match,False
f6cmay5gj4,206.0,Sting,LOUIS,Friend,triangle,238.0,i,match,False
f6cmay5gj4,207.0,Sting,LOUIS,Friend,carr,258.0,e,mismatch,True
f6cmay5gj4,208.0,Sting,LOUIS,Stranger,triangle,66.0,e,mismatch,False
f6cmay5gj4,209.0,Sting,LOUIS,Stranger,carr,36.0,i,match,False
f6cmay5gj4,210.0,Sting,LOUIS,Self,cercle,184.0,i,match,False
f6cmay5gj4,211.0,Sting,LOUIS,Self,triangle,188.0,i,match,False
f6cmay5gj4,212.0,Sting,LOUIS,Self,triangle,3.0,e,mismatch,True
f6cmay5gj4,213.0,Sting,LOUIS,Friend,triangle,262.0,i,match,False
f6cmay5gj4,214.0,Sting,LOUIS,Self,carr,73.0,e,mismatch,False
f6cmay5gj4,215.0,Sting,LOUIS,Friend,cercle,16.0,e,mismatch,False
f6cmay5gj4,216.0,Sting,LOUIS,Friend,triangle,291.0,i,match,False
f6cmay5gj4,217.0,Sting,LOUIS,Self,triangle,330.0,e,mismatch,True
f6cmay5gj4,218.0,Sting,LOUIS,Stranger,carr,159.0,i,match,False
f6cmay5gj4,219.0,Sting,LOUIS,Self,triangle,163.0,i,match,False
f6cmay5gj4,220.0,Sting,LOUIS,Stranger,cercle,158.0,i,match,False
f6cmay5gj4,221.0,Sting,LOUIS,Stranger,carr,131.0,e,mismatch,True
f6cmay5gj4,222.0,Sting,LOUIS,Self,cercle,172.0,e,mismatch,True
f6cmay5gj4,223.0,Sting,LOUIS,Self,triangle,180.0,i,match,False
f6cmay5gj4,224.0,Sting,LOUIS,Self,cercle,26.0,e,mismatch,True
f6cmay5gj4,225.0,Sting,LOUIS,Stranger,cercle,322.0,i,match,False
f6cmay5gj4,226.0,Sting,LOUIS,Friend,triangle,391.0,i,match,False
f6cmay5gj4,227.0,Sting,LOUIS,Friend,cercle,89.0,i,match,True
f6cmay5gj4,228.0,Sting,LOUIS,Self,triangle,517.0,e,mismatch,True
f6cmay5gj4,229.0,Sting,LOUIS,Self,carr,434.0,i,match,True
f6cmay5gj4,230.0,Sting,LOUIS,Self,carr,817.0,i,match,True
f6cmay5gj4,231.0,Sting,LOUIS,Friend,triangle,1254.0,i,match,False
f6cmay5gj4,232.0,Sting,LOUIS,Friend,triangle,443.0,e,mismatch,True
f6cmay5gj4,233.0,Sting,LOUIS,Self,cercle,1849.0,e,mismatch,True
f6cmay5gj4,234.0,Sting,LOUIS,Self,triangle,343.0,i,match,False
f6cmay5gj4,235.0,Sting,LOUIS,Friend,triangle,268.0,e,mismatch,True
f6cmay5gj4,236.0,Sting,LOUIS,Stranger,carr,225.0,i,match,False
f6cmay5gj4,237.0,Sting,LOUIS,Friend,triangle,92.0,e,mismatch,True
f6cmay5gj4,238.0,Sting,LOUIS,Self,carr,1401.0,i,match,True
f6cmay5gj4,239.0,Sting,LOUIS,Self,triangle,813.0,i,match,False
f6cmay5gj4,240.0,Sting,LOUIS,Self,triangle,511.0,i,match,False
f6cmay5gj4,241.0,Sting,LOUIS,Stranger,triangle,245.0,e,mismatch,False
f6cmay5gj4,242.0,Sting,LOUIS,Friend,triangle,1504.0,e,mismatch,True
f6cmay5gj4,243.0,Sting,LOUIS,Stranger,carr,43.0,e,mismatch,True
f6cmay5gj4,244.0,Sting,LOUIS,Self,cercle,619.0,i,match,False
f6cmay5gj4,245.0,Sting,LOUIS,Friend,triangle,2015.0,e,mismatch,True
f6cmay5gj4,246.0,Sting,LOUIS,Stranger,carr,446.0,i,match,False
f6cmay5gj4,247.0,Sting,LOUIS,Friend,cercle,1559.0,i,match,True
f6cmay5gj4,248.0,Sting,LOUIS,Self,carr,622.0,e,mismatch,False
f6cmay5gj4,249.0,Sting,LOUIS,Friend,cercle,540.0,e,mismatch,False
f6cmay5gj4,250.0,Sting,LOUIS,Stranger,triangle,32.0,e,mismatch,False
f6cmay5gj4,251.0,Sting,LOUIS,Stranger,triangle,86.0,i,match,True
f6cmay5gj4,252.0,Sting,LOUIS,Self,triangle,187.0,i,match,False
f6cmay5gj4,253.0,Sting,LOUIS,Friend,carr,98.0,e,mismatch,True
f6cmay5gj4,254.0,Sting,LOUIS,Friend,triangle,332.0,e,mismatch,True
f6cmay5gj4,255.0,Sting,LOUIS,Stranger,triangle,223.0,e,mismatch,False
