Participant,Trial,Label_Stranger,Label_Friend,Label_Condition,Shape,RT,Response,Answer,Correct
3vosqpph84,1.0,Sting,ray,Friend,triangle,2705.0,e,match,False
3vosqpph84,2.0,Sting,ray,Stranger,circle,2186.0,i,mismatch,True
3vosqpph84,3.0,Sting,ray,Stranger,circle,866.0,i,mismatch,True
3vosqpph84,4.0,Sting,ray,Stranger,circle,614.0,i,mismatch,True
3vosqpph84,5.0,Sting,ray,Stranger,square,844.0,i,mismatch,True
3vosqpph84,6.0,Sting,ray,Stranger,square,844.0,i,mismatch,True
3vosqpph84,7.0,Sting,ray,Self,circle,735.0,e,match,True
3vosqpph84,8.0,Sting,ray,Stranger,circle,814.0,i,mismatch,True
3vosqpph84,9.0,Sting,ray,Self,circle,570.0,e,match,True
3vosqpph84,10.0,Sting,ray,Friend,circle,894.0,i,mismatch,True
3vosqpph84,11.0,Sting,ray,Friend,square,1052.0,e,match,True
3vosqpph84,12.0,Sting,ray,Stranger,square,952.0,i,mismatch,True
3vosqpph84,13.0,Sting,ray,Friend,triangle,954.0,i,mismatch,True
3vosqpph84,14.0,Sting,ray,Friend,triangle,781.0,i,mismatch,True
3vosqpph84,15.0,Sting,ray,Stranger,triangle,753.0,i,mismatch,False
3vosqpph84,16.0,Sting,ray,Self,triangle,779.0,i,mismatch,True
3vosqpph84,17.0,Sting,ray,Stranger,square,781.0,i,mismatch,True
3vosqpph84,18.0,Sting,ray,Self,triangle,611.0,i,mismatch,True
3vosqpph84,19.0,Sting,ray,Friend,square,969.0,i,mismatch,False
3vosqpph84,20.0,Sting,ray,Friend,triangle,804.0,i,mismatch,True
3vosqpph84,21.0,Sting,ray,Friend,square,745.0,e,match,True
3vosqpph84,22.0,Sting,ray,Self,circle,728.0,e,match,True
3vosqpph84,23.0,Sting,ray,Self,triangle,900.0,i,mismatch,True
3vosqpph84,24.0,Sting,ray,Friend,triangle,1433.0,i,mismatch,True
3vosqpph84,25.0,Sting,ray,Stranger,square,835.0,i,mismatch,True
3vosqpph84,26.0,Sting,ray,Friend,triangle,941.0,i,mismatch,True
3vosqpph84,27.0,Sting,ray,Friend,square,836.0,e,match,True
3vosqpph84,28.0,Sting,ray,Stranger,square,703.0,i,mismatch,True
3vosqpph84,29.0,Sting,ray,Self,square,930.0,i,mismatch,True
3vosqpph84,30.0,Sting,ray,Self,triangle,637.0,i,mismatch,True
3vosqpph84,31.0,Sting,ray,Stranger,triangle,864.0,i,mismatch,False
3vosqpph84,32.0,Sting,ray,Stranger,circle,885.0,i,mismatch,True
3vosqpph84,33.0,Sting,ray,Friend,triangle,1378.0,i,mismatch,True
3vosqpph84,34.0,Sting,ray,Stranger,square,879.0,i,mismatch,True
3vosqpph84,35.0,Sting,ray,Self,square,759.0,i,mismatch,True
3vosqpph84,36.0,Sting,ray,Friend,circle,687.0,i,mismatch,True
3vosqpph84,37.0,Sting,ray,Self,triangle,879.0,i,mismatch,True
3vosqpph84,38.0,Sting,ray,Self,circle,487.0,e,match,True
3vosqpph84,39.0,Sting,ray,Self,circle,626.0,e,match,True
3vosqpph84,40.0,Sting,ray,Self,square,881.0,i,mismatch,True
3vosqpph84,41.0,Sting,ray,Self,square,1026.0,i,mismatch,True
3vosqpph84,42.0,Sting,ray,Stranger,square,597.0,i,mismatch,True
3vosqpph84,43.0,Sting,ray,Stranger,square,559.0,i,mismatch,True
3vosqpph84,44.0,Sting,ray,Self,triangle,701.0,i,mismatch,True
3vosqpph84,45.0,Sting,ray,Friend,triangle,956.0,e,match,False
3vosqpph84,46.0,Sting,ray,Friend,square,509.0,e,match,True
3vosqpph84,47.0,Sting,ray,Stranger,triangle,602.0,i,mismatch,False
3vosqpph84,48.0,Sting,ray,Stranger,triangle,730.0,e,match,True
3vosqpph84,49.0,Sting,ray,Friend,triangle,622.0,i,mismatch,True
3vosqpph84,50.0,Sting,ray,Self,triangle,805.0,i,mismatch,True
3vosqpph84,51.0,Sting,ray,Self,square,421.0,e,match,False
3vosqpph84,52.0,Sting,ray,Friend,triangle,737.0,i,mismatch,True
3vosqpph84,53.0,Sting,ray,Stranger,triangle,887.0,i,mismatch,False
3vosqpph84,54.0,Sting,ray,Stranger,square,865.0,i,mismatch,True
3vosqpph84,55.0,Sting,ray,Stranger,square,795.0,i,mismatch,True
3vosqpph84,56.0,Sting,ray,Stranger,square,779.0,i,mismatch,True
3vosqpph84,57.0,Sting,ray,Self,circle,617.0,e,match,True
3vosqpph84,58.0,Sting,ray,Stranger,circle,969.0,i,mismatch,True
3vosqpph84,59.0,Sting,ray,Self,square,684.0,i,mismatch,True
3vosqpph84,60.0,Sting,ray,Self,circle,719.0,e,match,True
3vosqpph84,61.0,Sting,ray,Friend,triangle,966.0,i,mismatch,True
3vosqpph84,62.0,Sting,ray,Self,triangle,727.0,i,mismatch,True
3vosqpph84,63.0,Sting,ray,Friend,circle,754.0,i,mismatch,True
3vosqpph84,64.0,Sting,ray,Self,circle,768.0,e,match,True
3vosqpph84,65.0,Sting,ray,Self,triangle,847.0,i,mismatch,True
3vosqpph84,66.0,Sting,ray,Self,triangle,721.0,e,match,False
3vosqpph84,67.0,Sting,ray,Self,triangle,711.0,i,mismatch,True
3vosqpph84,68.0,Sting,ray,Stranger,triangle,587.0,i,mismatch,False
3vosqpph84,69.0,Sting,ray,Stranger,triangle,845.0,e,match,True
3vosqpph84,70.0,Sting,ray,Self,triangle,646.0,i,mismatch,True
3vosqpph84,71.0,Sting,ray,Stranger,circle,1871.0,i,mismatch,True
3vosqpph84,72.0,Sting,ray,Self,square,996.0,i,mismatch,True
3vosqpph84,73.0,Sting,ray,Self,triangle,1089.0,i,mismatch,True
3vosqpph84,74.0,Sting,ray,Friend,square,1235.0,e,match,True
3vosqpph84,75.0,Sting,ray,Self,triangle,1012.0,i,mismatch,True
3vosqpph84,76.0,Sting,ray,Self,square,588.0,i,mismatch,True
3vosqpph84,77.0,Sting,ray,Friend,circle,656.0,i,mismatch,True
3vosqpph84,78.0,Sting,ray,Self,triangle,1242.0,i,mismatch,True
3vosqpph84,79.0,Sting,ray,Self,triangle,721.0,i,mismatch,True
3vosqpph84,80.0,Sting,ray,Self,circle,575.0,e,match,True
3vosqpph84,81.0,Sting,ray,Stranger,circle,535.0,i,mismatch,True
3vosqpph84,82.0,Sting,ray,Stranger,circle,351.0,i,mismatch,True
3vosqpph84,83.0,Sting,ray,Self,circle,635.0,e,match,True
3vosqpph84,84.0,Sting,ray,Friend,triangle,1302.0,e,match,False
3vosqpph84,85.0,Sting,ray,Stranger,triangle,713.0,e,match,True
3vosqpph84,86.0,Sting,ray,Friend,circle,833.0,e,match,False
3vosqpph84,87.0,Sting,ray,Friend,circle,716.0,i,mismatch,True
3vosqpph84,88.0,Sting,ray,Friend,square,595.0,e,match,True
3vosqpph84,89.0,Sting,ray,Friend,circle,577.0,i,mismatch,True
3vosqpph84,90.0,Sting,ray,Friend,circle,765.0,i,mismatch,True
3vosqpph84,91.0,Sting,ray,Stranger,square,766.0,i,mismatch,True
3vosqpph84,92.0,Sting,ray,Stranger,circle,1033.0,i,mismatch,True
3vosqpph84,93.0,Sting,ray,Self,triangle,899.0,i,mismatch,True
3vosqpph84,94.0,Sting,ray,Friend,square,783.0,e,match,True
3vosqpph84,95.0,Sting,ray,Stranger,circle,1079.0,i,mismatch,True
3vosqpph84,96.0,Sting,ray,Friend,square,640.0,e,match,True
3vosqpph84,97.0,Sting,ray,Self,circle,684.0,e,match,True
3vosqpph84,98.0,Sting,ray,Stranger,triangle,837.0,e,match,True
3vosqpph84,99.0,Sting,ray,Self,circle,822.0,e,match,True
3vosqpph84,100.0,Sting,ray,Stranger,triangle,1058.0,e,match,True
3vosqpph84,101.0,Sting,ray,Self,triangle,565.0,i,mismatch,True
3vosqpph84,102.0,Sting,ray,Friend,square,541.0,e,match,True
3vosqpph84,103.0,Sting,ray,Stranger,circle,689.0,i,mismatch,True
3vosqpph84,104.0,Sting,ray,Stranger,circle,581.0,i,mismatch,True
3vosqpph84,105.0,Sting,ray,Self,circle,518.0,e,match,True
3vosqpph84,106.0,Sting,ray,Friend,circle,539.0,i,mismatch,True
3vosqpph84,107.0,Sting,ray,Self,triangle,1059.0,i,mismatch,True
3vosqpph84,108.0,Sting,ray,Stranger,circle,810.0,i,mismatch,True
3vosqpph84,109.0,Sting,ray,Friend,circle,504.0,i,mismatch,True
3vosqpph84,110.0,Sting,ray,Stranger,square,1085.0,i,mismatch,True
3vosqpph84,111.0,Sting,ray,Stranger,triangle,762.0,i,mismatch,False
3vosqpph84,112.0,Sting,ray,Stranger,square,750.0,i,mismatch,True
3vosqpph84,113.0,Sting,ray,Self,triangle,654.0,i,mismatch,True
3vosqpph84,114.0,Sting,ray,Self,square,830.0,i,mismatch,True
3vosqpph84,115.0,Sting,ray,Stranger,triangle,1052.0,i,mismatch,False
3vosqpph84,116.0,Sting,ray,Friend,circle,686.0,i,mismatch,True
3vosqpph84,117.0,Sting,ray,Stranger,square,1056.0,i,mismatch,True
3vosqpph84,118.0,Sting,ray,Friend,circle,607.0,i,mismatch,True
3vosqpph84,119.0,Sting,ray,Friend,square,695.0,e,match,True
3vosqpph84,120.0,Sting,ray,Stranger,circle,640.0,i,mismatch,True
3vosqpph84,121.0,Sting,ray,Stranger,triangle,849.0,e,match,True
3vosqpph84,122.0,Sting,ray,Self,square,742.0,i,mismatch,True
3vosqpph84,123.0,Sting,ray,Stranger,triangle,882.0,e,match,True
3vosqpph84,124.0,Sting,ray,Stranger,triangle,566.0,e,match,True
3vosqpph84,125.0,Sting,ray,Self,circle,635.0,e,match,True
3vosqpph84,126.0,Sting,ray,Stranger,triangle,772.0,e,match,True
3vosqpph84,127.0,Sting,ray,Self,square,596.0,i,mismatch,True
3vosqpph84,128.0,Sting,ray,Stranger,square,666.0,i,mismatch,True
3vosqpph84,129.0,Sting,ray,Friend,triangle,763.0,i,mismatch,True
3vosqpph84,130.0,Sting,ray,Self,circle,1214.0,e,match,True
3vosqpph84,131.0,Sting,ray,Self,square,648.0,i,mismatch,True
3vosqpph84,132.0,Sting,ray,Self,triangle,682.0,i,mismatch,True
3vosqpph84,133.0,Sting,ray,Stranger,circle,831.0,i,mismatch,True
3vosqpph84,134.0,Sting,ray,Friend,triangle,775.0,e,match,False
3vosqpph84,135.0,Sting,ray,Friend,circle,773.0,i,mismatch,True
3vosqpph84,136.0,Sting,ray,Self,circle,717.0,e,match,True
3vosqpph84,137.0,Sting,ray,Self,circle,473.0,e,match,True
3vosqpph84,138.0,Sting,ray,Friend,triangle,891.0,i,mismatch,True
3vosqpph84,139.0,Sting,ray,Friend,triangle,660.0,i,mismatch,True
3vosqpph84,140.0,Sting,ray,Stranger,circle,824.0,i,mismatch,True
3vosqpph84,141.0,Sting,ray,Friend,square,625.0,e,match,True
3vosqpph84,142.0,Sting,ray,Friend,circle,1074.0,i,mismatch,True
3vosqpph84,143.0,Sting,ray,Self,circle,2363.0,e,match,True
3vosqpph84,144.0,Sting,ray,Friend,circle,1798.0,e,match,False
3vosqpph84,145.0,Sting,ray,Stranger,square,1970.0,i,mismatch,True
3vosqpph84,146.0,Sting,ray,Stranger,triangle,804.0,e,match,True
3vosqpph84,147.0,Sting,ray,Self,square,758.0,i,mismatch,True
3vosqpph84,148.0,Sting,ray,Self,circle,710.0,e,match,True
3vosqpph84,149.0,Sting,ray,Friend,circle,581.0,e,match,False
3vosqpph84,150.0,Sting,ray,Stranger,triangle,1068.0,i,mismatch,False
3vosqpph84,151.0,Sting,ray,Stranger,triangle,834.0,i,mismatch,False
3vosqpph84,152.0,Sting,ray,Self,triangle,731.0,i,mismatch,True
3vosqpph84,153.0,Sting,ray,Friend,triangle,738.0,i,mismatch,True
3vosqpph84,154.0,Sting,ray,Self,triangle,705.0,i,mismatch,True
3vosqpph84,155.0,Sting,ray,Friend,triangle,764.0,i,mismatch,True
3vosqpph84,156.0,Sting,ray,Friend,circle,649.0,i,mismatch,True
3vosqpph84,157.0,Sting,ray,Friend,square,719.0,e,match,True
3vosqpph84,158.0,Sting,ray,Friend,square,483.0,e,match,True
3vosqpph84,159.0,Sting,ray,Friend,triangle,568.0,i,mismatch,True
3vosqpph84,160.0,Sting,ray,Stranger,circle,905.0,i,mismatch,True
3vosqpph84,161.0,Sting,ray,Stranger,square,1056.0,i,mismatch,True
3vosqpph84,162.0,Sting,ray,Self,circle,512.0,e,match,True
3vosqpph84,163.0,Sting,ray,Self,square,955.0,i,mismatch,True
3vosqpph84,164.0,Sting,ray,Stranger,square,650.0,i,mismatch,True
3vosqpph84,165.0,Sting,ray,Stranger,triangle,957.0,e,match,True
3vosqpph84,166.0,Sting,ray,Friend,square,782.0,e,match,True
3vosqpph84,167.0,Sting,ray,Self,circle,661.0,e,match,True
3vosqpph84,168.0,Sting,ray,Self,circle,592.0,e,match,True
3vosqpph84,169.0,Sting,ray,Friend,square,713.0,e,match,True
3vosqpph84,170.0,Sting,ray,Friend,square,585.0,e,match,True
3vosqpph84,171.0,Sting,ray,Self,circle,594.0,e,match,True
3vosqpph84,172.0,Sting,ray,Friend,triangle,697.0,i,mismatch,True
3vosqpph84,173.0,Sting,ray,Self,square,781.0,i,mismatch,True
3vosqpph84,174.0,Sting,ray,Stranger,square,891.0,i,mismatch,True
3vosqpph84,175.0,Sting,ray,Stranger,circle,833.0,i,mismatch,True
3vosqpph84,176.0,Sting,ray,Friend,square,698.0,e,match,True
3vosqpph84,177.0,Sting,ray,Stranger,square,660.0,i,mismatch,True
3vosqpph84,178.0,Sting,ray,Stranger,triangle,1060.0,e,match,True
3vosqpph84,179.0,Sting,ray,Self,triangle,602.0,i,mismatch,True
3vosqpph84,180.0,Sting,ray,Friend,square,861.0,e,match,True
3vosqpph84,181.0,Sting,ray,Stranger,triangle,943.0,e,match,True
3vosqpph84,182.0,Sting,ray,Stranger,triangle,569.0,e,match,True
3vosqpph84,183.0,Sting,ray,Self,circle,701.0,e,match,True
3vosqpph84,184.0,Sting,ray,Stranger,circle,630.0,i,mismatch,True
3vosqpph84,185.0,Sting,ray,Friend,triangle,905.0,i,mismatch,True
3vosqpph84,186.0,Sting,ray,Self,circle,829.0,e,match,True
3vosqpph84,187.0,Sting,ray,Self,triangle,627.0,i,mismatch,True
3vosqpph84,188.0,Sting,ray,Self,triangle,723.0,e,match,False
3vosqpph84,189.0,Sting,ray,Self,triangle,519.0,i,mismatch,True
3vosqpph84,190.0,Sting,ray,Self,square,648.0,i,mismatch,True
3vosqpph84,191.0,Sting,ray,Friend,circle,653.0,i,mismatch,True
3vosqpph84,192.0,Sting,ray,Friend,circle,721.0,i,mismatch,True
3vosqpph84,193.0,Sting,ray,Stranger,square,1020.0,i,mismatch,True
3vosqpph84,194.0,Sting,ray,Stranger,triangle,1102.0,i,mismatch,False
3vosqpph84,195.0,Sting,ray,Friend,circle,821.0,i,mismatch,True
3vosqpph84,196.0,Sting,ray,Self,triangle,617.0,i,mismatch,True
3vosqpph84,197.0,Sting,ray,Friend,circle,680.0,i,mismatch,True
3vosqpph84,198.0,Sting,ray,Self,circle,780.0,e,match,True
3vosqpph84,199.0,Sting,ray,Self,square,731.0,i,mismatch,True
3vosqpph84,200.0,Sting,ray,Self,square,739.0,i,mismatch,True
3vosqpph84,201.0,Sting,ray,Friend,triangle,522.0,i,mismatch,True
3vosqpph84,202.0,Sting,ray,Self,square,751.0,i,mismatch,True
3vosqpph84,203.0,Sting,ray,Stranger,circle,624.0,i,mismatch,True
3vosqpph84,204.0,Sting,ray,Self,circle,897.0,e,match,True
3vosqpph84,205.0,Sting,ray,Stranger,triangle,913.0,e,match,True
3vosqpph84,206.0,Sting,ray,Friend,square,459.0,e,match,True
3vosqpph84,207.0,Sting,ray,Self,triangle,642.0,i,mismatch,True
3vosqpph84,208.0,Sting,ray,Stranger,circle,756.0,i,mismatch,True
3vosqpph84,209.0,Sting,ray,Friend,circle,917.0,i,mismatch,True
3vosqpph84,210.0,Sting,ray,Self,circle,701.0,e,match,True
3vosqpph84,211.0,Sting,ray,Self,square,752.0,i,mismatch,True
3vosqpph84,212.0,Sting,ray,Friend,circle,822.0,i,mismatch,True
3vosqpph84,213.0,Sting,ray,Self,circle,674.0,e,match,True
3vosqpph84,214.0,Sting,ray,Self,square,654.0,i,mismatch,True
3vosqpph84,215.0,Sting,ray,Stranger,square,1040.0,i,mismatch,True
3vosqpph84,216.0,Sting,ray,Stranger,circle,761.0,i,mismatch,True
3vosqpph84,217.0,Sting,ray,Self,square,698.0,i,mismatch,True
3vosqpph84,218.0,Sting,ray,Self,square,645.0,i,mismatch,True
3vosqpph84,219.0,Sting,ray,Friend,triangle,506.0,i,mismatch,True
3vosqpph84,220.0,Sting,ray,Stranger,circle,778.0,i,mismatch,True
3vosqpph84,221.0,Sting,ray,Stranger,square,794.0,i,mismatch,True
3vosqpph84,222.0,Sting,ray,Friend,square,695.0,e,match,True
3vosqpph84,223.0,Sting,ray,Self,square,1034.0,i,mismatch,True
3vosqpph84,224.0,Sting,ray,Stranger,triangle,854.0,e,match,True
3vosqpph84,225.0,Sting,ray,Friend,triangle,653.0,i,mismatch,True
3vosqpph84,226.0,Sting,ray,Self,square,640.0,i,mismatch,True
3vosqpph84,227.0,Sting,ray,Self,circle,542.0,e,match,True
3vosqpph84,228.0,Sting,ray,Friend,circle,559.0,i,mismatch,True
3vosqpph84,229.0,Sting,ray,Stranger,triangle,698.0,e,match,True
3vosqpph84,230.0,Sting,ray,Self,triangle,713.0,i,mismatch,True
3vosqpph84,231.0,Sting,ray,Friend,triangle,628.0,i,mismatch,True
3vosqpph84,232.0,Sting,ray,Self,square,775.0,i,mismatch,True
3vosqpph84,233.0,Sting,ray,Self,circle,546.0,e,match,True
3vosqpph84,234.0,Sting,ray,Friend,triangle,814.0,i,mismatch,True
3vosqpph84,235.0,Sting,ray,Friend,square,785.0,e,match,True
3vosqpph84,236.0,Sting,ray,Friend,circle,675.0,i,mismatch,True
3vosqpph84,237.0,Sting,ray,Friend,triangle,791.0,i,mismatch,True
3vosqpph84,238.0,Sting,ray,Stranger,circle,716.0,i,mismatch,True
3vosqpph84,239.0,Sting,ray,Stranger,circle,608.0,i,mismatch,True
3vosqpph84,240.0,Sting,ray,Friend,square,613.0,e,match,True
3vosqpph84,241.0,Sting,ray,Stranger,square,638.0,i,mismatch,True
3vosqpph84,242.0,Sting,ray,Friend,triangle,715.0,i,mismatch,True
3vosqpph84,243.0,Sting,ray,Friend,square,792.0,e,match,True
3vosqpph84,244.0,Sting,ray,Stranger,circle,621.0,i,mismatch,True
3vosqpph84,245.0,Sting,ray,Friend,square,683.0,e,match,True
3vosqpph84,246.0,Sting,ray,Stranger,circle,699.0,i,mismatch,True
3vosqpph84,247.0,Sting,ray,Friend,triangle,828.0,i,mismatch,True
3vosqpph84,248.0,Sting,ray,Self,circle,759.0,e,match,True
3vosqpph84,249.0,Sting,ray,Friend,square,558.0,i,mismatch,False
3vosqpph84,250.0,Sting,ray,Friend,circle,582.0,i,mismatch,True
3vosqpph84,251.0,Sting,ray,Stranger,triangle,567.0,e,match,True
3vosqpph84,252.0,Sting,ray,Stranger,square,754.0,i,mismatch,True
3vosqpph84,253.0,Sting,ray,Self,square,742.0,i,mismatch,True
3vosqpph84,254.0,Sting,ray,Stranger,triangle,776.0,e,match,True
3vosqpph84,255.0,Sting,ray,Friend,square,512.0,i,mismatch,False
3vosqpph84,256.0,Sting,ray,Friend,square,499.0,e,match,True
3vosqpph84,257.0,Sting,ray,Self,circle,504.0,e,match,True
3vosqpph84,258.0,Sting,ray,Stranger,square,577.0,i,mismatch,True
3vosqpph84,259.0,Sting,ray,Self,square,662.0,i,mismatch,True
3vosqpph84,260.0,Sting,ray,Self,circle,497.0,e,match,True
3vosqpph84,261.0,Sting,ray,Friend,square,500.0,i,mismatch,False
3vosqpph84,262.0,Sting,ray,Stranger,square,616.0,i,mismatch,True
3vosqpph84,263.0,Sting,ray,Stranger,square,636.0,i,mismatch,True
3vosqpph84,264.0,Sting,ray,Stranger,triangle,961.0,e,match,True
3vosqpph84,265.0,Sting,ray,Self,square,629.0,i,mismatch,True
3vosqpph84,266.0,Sting,ray,Self,triangle,864.0,i,mismatch,True
3vosqpph84,267.0,Sting,ray,Self,square,514.0,i,mismatch,True
3vosqpph84,268.0,Sting,ray,Stranger,circle,563.0,i,mismatch,True
3vosqpph84,269.0,Sting,ray,Self,triangle,687.0,i,mismatch,True
3vosqpph84,270.0,Sting,ray,Stranger,square,880.0,i,mismatch,True
3vosqpph84,271.0,Sting,ray,Stranger,circle,693.0,i,mismatch,True
3vosqpph84,272.0,Sting,ray,Stranger,square,501.0,i,mismatch,True
3vosqpph84,273.0,Sting,ray,Stranger,triangle,409.0,e,match,True
3vosqpph84,274.0,Sting,ray,Stranger,triangle,641.0,e,match,True
3vosqpph84,275.0,Sting,ray,Friend,square,771.0,e,match,True
3vosqpph84,276.0,Sting,ray,Friend,circle,1621.0,i,mismatch,True
3vosqpph84,277.0,Sting,ray,Friend,square,1014.0,e,match,True
3vosqpph84,278.0,Sting,ray,Friend,circle,1338.0,i,mismatch,True
3vosqpph84,279.0,Sting,ray,Friend,circle,1618.0,i,mismatch,True
3vosqpph84,280.0,Sting,ray,Friend,circle,952.0,i,mismatch,True
3vosqpph84,281.0,Sting,ray,Stranger,square,1091.0,i,mismatch,True
3vosqpph84,282.0,Sting,ray,Stranger,square,851.0,i,mismatch,True
3vosqpph84,283.0,Sting,ray,Friend,triangle,623.0,e,match,False
3vosqpph84,284.0,Sting,ray,Friend,circle,727.0,i,mismatch,True
3vosqpph84,285.0,Sting,ray,Friend,triangle,621.0,e,match,False
3vosqpph84,286.0,Sting,ray,Friend,square,590.0,e,match,True
3vosqpph84,287.0,Sting,ray,Friend,circle,630.0,i,mismatch,True
3vosqpph84,288.0,Sting,ray,Stranger,circle,746.0,i,mismatch,True
3vosqpph84,289.0,Sting,ray,Self,circle,547.0,e,match,True
3vosqpph84,290.0,Sting,ray,Self,square,707.0,i,mismatch,True
3vosqpph84,291.0,Sting,ray,Friend,square,1001.0,e,match,True
3vosqpph84,292.0,Sting,ray,Stranger,circle,890.0,i,mismatch,True
3vosqpph84,293.0,Sting,ray,Friend,triangle,700.0,e,match,False
3vosqpph84,294.0,Sting,ray,Stranger,triangle,884.0,e,match,True
3vosqpph84,295.0,Sting,ray,Stranger,circle,656.0,i,mismatch,True
3vosqpph84,296.0,Sting,ray,Friend,circle,599.0,i,mismatch,True
3vosqpph84,297.0,Sting,ray,Self,square,703.0,i,mismatch,True
3vosqpph84,298.0,Sting,ray,Friend,square,710.0,e,match,True
3vosqpph84,299.0,Sting,ray,Self,triangle,684.0,i,mismatch,True
3vosqpph84,300.0,Sting,ray,Friend,square,769.0,e,match,True
3vosqpph84,301.0,Sting,ray,Stranger,circle,599.0,i,mismatch,True
3vosqpph84,302.0,Sting,ray,Friend,circle,757.0,i,mismatch,True
3vosqpph84,303.0,Sting,ray,Self,circle,916.0,e,match,True
3vosqpph84,304.0,Sting,ray,Self,square,969.0,i,mismatch,True
3vosqpph84,305.0,Sting,ray,Self,square,871.0,i,mismatch,True
3vosqpph84,306.0,Sting,ray,Stranger,circle,700.0,i,mismatch,True
3vosqpph84,307.0,Sting,ray,Friend,square,674.0,e,match,True
3vosqpph84,308.0,Sting,ray,Stranger,triangle,688.0,e,match,True
3vosqpph84,309.0,Sting,ray,Friend,circle,630.0,i,mismatch,True
3vosqpph84,310.0,Sting,ray,Stranger,square,679.0,i,mismatch,True
3vosqpph84,311.0,Sting,ray,Stranger,circle,522.0,i,mismatch,True
3vosqpph84,312.0,Sting,ray,Friend,triangle,650.0,e,match,False
3vosqpph84,313.0,Sting,ray,Friend,triangle,526.0,i,mismatch,True
3vosqpph84,314.0,Sting,ray,Stranger,triangle,807.0,e,match,True
3vosqpph84,315.0,Sting,ray,Friend,triangle,617.0,i,mismatch,True
3vosqpph84,316.0,Sting,ray,Stranger,square,786.0,i,mismatch,True
3vosqpph84,317.0,Sting,ray,Self,triangle,610.0,i,mismatch,True
3vosqpph84,318.0,Sting,ray,Stranger,triangle,479.0,i,mismatch,False
3vosqpph84,319.0,Sting,ray,Self,square,688.0,i,mismatch,True
3vosqpph84,320.0,Sting,ray,Self,triangle,570.0,i,mismatch,True
3vosqpph84,321.0,Sting,ray,Self,triangle,532.0,i,mismatch,True
3vosqpph84,322.0,Sting,ray,Friend,triangle,656.0,i,mismatch,True
3vosqpph84,323.0,Sting,ray,Friend,circle,617.0,i,mismatch,True
3vosqpph84,324.0,Sting,ray,Self,square,628.0,i,mismatch,True
fqy71bajv6,1.0,Madonna,Alona,Stranger,triangle,,,,False
fqy71bajv6,2.0,Madonna,Alona,Self,circle,2222.0,i,match,True
fqy71bajv6,3.0,Madonna,Alona,Self,triangle,1384.0,e,mismatch,True
fqy71bajv6,4.0,Madonna,Alona,Stranger,circle,1355.0,i,match,False
fqy71bajv6,5.0,Madonna,Alona,Friend,square,1234.0,i,match,True
fqy71bajv6,6.0,Madonna,Alona,Friend,square,1113.0,e,mismatch,False
fqy71bajv6,7.0,Madonna,Alona,Stranger,circle,896.0,i,match,False
fqy71bajv6,8.0,Madonna,Alona,Self,circle,1530.0,i,match,True
fqy71bajv6,9.0,Madonna,Alona,Friend,square,1905.0,i,match,True
fqy71bajv6,10.0,Madonna,Alona,Friend,triangle,1270.0,e,mismatch,True
fqy71bajv6,11.0,Madonna,Alona,Self,triangle,1243.0,e,mismatch,True
fqy71bajv6,12.0,Madonna,Alona,Friend,square,1537.0,e,mismatch,False
fqy71bajv6,13.0,Madonna,Alona,Stranger,triangle,923.0,i,match,True
fqy71bajv6,14.0,Madonna,Alona,Stranger,square,911.0,e,mismatch,True
fqy71bajv6,15.0,Madonna,Alona,Friend,square,939.0,i,match,True
fqy71bajv6,16.0,Madonna,Alona,Friend,circle,968.0,e,mismatch,True
fqy71bajv6,17.0,Madonna,Alona,Self,circle,889.0,i,match,True
fqy71bajv6,18.0,Madonna,Alona,Stranger,triangle,850.0,i,match,True
fqy71bajv6,19.0,Madonna,Alona,Self,triangle,651.0,e,mismatch,True
fqy71bajv6,20.0,Madonna,Alona,Self,square,856.0,i,match,False
fqy71bajv6,21.0,Madonna,Alona,Friend,circle,847.0,e,mismatch,True
fqy71bajv6,22.0,Madonna,Alona,Self,triangle,1137.0,i,match,False
fqy71bajv6,23.0,Madonna,Alona,Stranger,triangle,997.0,i,match,True
fqy71bajv6,24.0,Madonna,Alona,Self,circle,844.0,i,match,True
fqy71bajv6,25.0,Madonna,Alona,Self,circle,885.0,i,match,True
fqy71bajv6,26.0,Madonna,Alona,Self,square,666.0,e,mismatch,True
fqy71bajv6,27.0,Madonna,Alona,Friend,triangle,905.0,e,mismatch,True
fqy71bajv6,28.0,Madonna,Alona,Stranger,square,550.0,i,match,False
fqy71bajv6,29.0,Madonna,Alona,Friend,triangle,1059.0,e,mismatch,True
fqy71bajv6,30.0,Madonna,Alona,Friend,circle,741.0,i,match,False
fqy71bajv6,31.0,Madonna,Alona,Self,square,541.0,e,mismatch,True
fqy71bajv6,32.0,Madonna,Alona,Friend,triangle,784.0,e,mismatch,True
fqy71bajv6,33.0,Madonna,Alona,Self,circle,849.0,i,match,True
fqy71bajv6,34.0,Madonna,Alona,Stranger,triangle,685.0,e,mismatch,False
fqy71bajv6,35.0,Madonna,Alona,Self,triangle,915.0,e,mismatch,True
fqy71bajv6,36.0,Madonna,Alona,Stranger,circle,588.0,i,match,False
fqy71bajv6,37.0,Madonna,Alona,Stranger,square,587.0,e,mismatch,True
fqy71bajv6,38.0,Madonna,Alona,Friend,circle,1026.0,i,match,False
fqy71bajv6,39.0,Madonna,Alona,Self,square,538.0,e,mismatch,True
fqy71bajv6,40.0,Madonna,Alona,Friend,circle,776.0,e,mismatch,True
fqy71bajv6,41.0,Madonna,Alona,Self,circle,746.0,i,match,True
fqy71bajv6,42.0,Madonna,Alona,Self,triangle,842.0,i,match,False
fqy71bajv6,43.0,Madonna,Alona,Self,circle,1155.0,i,match,True
fqy71bajv6,44.0,Madonna,Alona,Friend,square,663.0,e,mismatch,False
fqy71bajv6,45.0,Madonna,Alona,Self,triangle,680.0,i,match,False
fqy71bajv6,46.0,Madonna,Alona,Friend,square,710.0,i,match,True
fqy71bajv6,47.0,Madonna,Alona,Self,square,678.0,e,mismatch,True
fqy71bajv6,48.0,Madonna,Alona,Friend,circle,913.0,e,mismatch,True
fqy71bajv6,49.0,Madonna,Alona,Friend,triangle,577.0,i,match,False
fqy71bajv6,50.0,Madonna,Alona,Friend,triangle,897.0,e,mismatch,True
fqy71bajv6,51.0,Madonna,Alona,Stranger,square,1160.0,e,mismatch,True
fqy71bajv6,52.0,Madonna,Alona,Friend,square,602.0,e,mismatch,False
fqy71bajv6,53.0,Madonna,Alona,Self,circle,896.0,i,match,True
fqy71bajv6,54.0,Madonna,Alona,Self,triangle,953.0,e,mismatch,True
fqy71bajv6,55.0,Madonna,Alona,Friend,triangle,870.0,e,mismatch,True
fqy71bajv6,56.0,Madonna,Alona,Stranger,circle,847.0,i,match,False
fqy71bajv6,57.0,Madonna,Alona,Stranger,circle,1102.0,e,mismatch,True
fqy71bajv6,58.0,Madonna,Alona,Friend,triangle,945.0,e,mismatch,True
fqy71bajv6,59.0,Madonna,Alona,Friend,triangle,761.0,e,mismatch,True
fqy71bajv6,60.0,Madonna,Alona,Self,square,1015.0,i,match,False
fqy71bajv6,61.0,Madonna,Alona,Friend,circle,736.0,e,mismatch,True
fqy71bajv6,62.0,Madonna,Alona,Stranger,square,641.0,i,match,False
fqy71bajv6,63.0,Madonna,Alona,Friend,circle,714.0,e,mismatch,True
fqy71bajv6,64.0,Madonna,Alona,Self,triangle,814.0,e,mismatch,True
fqy71bajv6,65.0,Madonna,Alona,Friend,triangle,765.0,i,match,False
fqy71bajv6,66.0,Madonna,Alona,Friend,circle,691.0,e,mismatch,True
fqy71bajv6,67.0,Madonna,Alona,Self,triangle,1652.0,i,match,False
fqy71bajv6,68.0,Madonna,Alona,Self,triangle,741.0,e,mismatch,True
fqy71bajv6,69.0,Madonna,Alona,Self,square,663.0,e,mismatch,True
fqy71bajv6,70.0,Madonna,Alona,Self,triangle,955.0,e,mismatch,True
fqy71bajv6,71.0,Madonna,Alona,Self,circle,516.0,e,mismatch,False
fqy71bajv6,72.0,Madonna,Alona,Self,triangle,834.0,e,mismatch,True
fqy71bajv6,73.0,Madonna,Alona,Friend,triangle,803.0,i,match,False
fqy71bajv6,74.0,Madonna,Alona,Stranger,triangle,889.0,i,match,True
fqy71bajv6,75.0,Madonna,Alona,Self,triangle,771.0,e,mismatch,True
fqy71bajv6,76.0,Madonna,Alona,Self,triangle,1589.0,e,mismatch,True
fqy71bajv6,77.0,Madonna,Alona,Self,square,910.0,i,match,False
fqy71bajv6,78.0,Madonna,Alona,Stranger,square,1512.0,e,mismatch,True
fqy71bajv6,79.0,Madonna,Alona,Friend,triangle,722.0,e,mismatch,True
fqy71bajv6,80.0,Madonna,Alona,Stranger,square,730.0,i,match,False
fqy71bajv6,81.0,Madonna,Alona,Stranger,circle,773.0,e,mismatch,True
fqy71bajv6,82.0,Madonna,Alona,Self,square,913.0,e,mismatch,True
fqy71bajv6,83.0,Madonna,Alona,Stranger,circle,850.0,e,mismatch,True
fqy71bajv6,84.0,Madonna,Alona,Friend,square,1056.0,e,mismatch,False
fqy71bajv6,85.0,Madonna,Alona,Friend,circle,502.0,e,mismatch,True
fqy71bajv6,86.0,Madonna,Alona,Self,circle,810.0,i,match,True
fqy71bajv6,87.0,Madonna,Alona,Friend,square,541.0,e,mismatch,False
fqy71bajv6,88.0,Madonna,Alona,Self,square,730.0,i,match,False
fqy71bajv6,89.0,Madonna,Alona,Friend,triangle,394.0,e,mismatch,True
fqy71bajv6,90.0,Madonna,Alona,Stranger,triangle,728.0,i,match,True
fqy71bajv6,91.0,Madonna,Alona,Stranger,square,698.0,i,match,False
fqy71bajv6,92.0,Madonna,Alona,Stranger,circle,703.0,e,mismatch,True
fqy71bajv6,93.0,Madonna,Alona,Stranger,square,717.0,e,mismatch,True
fqy71bajv6,94.0,Madonna,Alona,Self,circle,922.0,i,match,True
fqy71bajv6,95.0,Madonna,Alona,Stranger,square,758.0,e,mismatch,True
fqy71bajv6,96.0,Madonna,Alona,Self,square,1047.0,e,mismatch,True
fqy71bajv6,97.0,Madonna,Alona,Friend,square,1178.0,e,mismatch,False
fqy71bajv6,98.0,Madonna,Alona,Self,circle,1933.0,i,match,True
fqy71bajv6,99.0,Madonna,Alona,Friend,triangle,646.0,e,mismatch,True
fqy71bajv6,100.0,Madonna,Alona,Stranger,circle,1470.0,i,match,False
fqy71bajv6,101.0,Madonna,Alona,Self,circle,1397.0,i,match,True
fqy71bajv6,102.0,Madonna,Alona,Friend,square,859.0,e,mismatch,False
fqy71bajv6,103.0,Madonna,Alona,Self,square,839.0,e,mismatch,True
fqy71bajv6,104.0,Madonna,Alona,Stranger,triangle,1033.0,i,match,True
fqy71bajv6,105.0,Madonna,Alona,Stranger,circle,1146.0,e,mismatch,True
fqy71bajv6,106.0,Madonna,Alona,Stranger,triangle,783.0,e,mismatch,False
fqy71bajv6,107.0,Madonna,Alona,Self,square,1072.0,e,mismatch,True
fqy71bajv6,108.0,Madonna,Alona,Friend,triangle,1038.0,i,match,False
fqy71bajv6,109.0,Madonna,Alona,Stranger,circle,960.0,e,mismatch,True
fqy71bajv6,110.0,Madonna,Alona,Stranger,triangle,749.0,i,match,True
fqy71bajv6,111.0,Madonna,Alona,Stranger,square,740.0,e,mismatch,True
fqy71bajv6,112.0,Madonna,Alona,Friend,circle,788.0,e,mismatch,True
fqy71bajv6,113.0,Madonna,Alona,Friend,circle,766.0,e,mismatch,True
fqy71bajv6,114.0,Madonna,Alona,Self,triangle,1160.0,e,mismatch,True
fqy71bajv6,115.0,Madonna,Alona,Self,circle,643.0,i,match,True
fqy71bajv6,116.0,Madonna,Alona,Stranger,circle,648.0,e,mismatch,True
fqy71bajv6,117.0,Madonna,Alona,Stranger,circle,703.0,e,mismatch,True
fqy71bajv6,118.0,Madonna,Alona,Friend,square,911.0,i,match,True
fqy71bajv6,119.0,Madonna,Alona,Self,circle,601.0,e,mismatch,False
fqy71bajv6,120.0,Madonna,Alona,Friend,square,862.0,i,match,True
fqy71bajv6,121.0,Madonna,Alona,Friend,square,740.0,e,mismatch,False
fqy71bajv6,122.0,Madonna,Alona,Friend,square,549.0,i,match,True
fqy71bajv6,123.0,Madonna,Alona,Friend,circle,728.0,e,mismatch,True
fqy71bajv6,124.0,Madonna,Alona,Stranger,square,820.0,e,mismatch,True
fqy71bajv6,125.0,Madonna,Alona,Friend,circle,1134.0,e,mismatch,True
fqy71bajv6,126.0,Madonna,Alona,Friend,circle,501.0,e,mismatch,True
fqy71bajv6,127.0,Madonna,Alona,Stranger,circle,988.0,e,mismatch,True
fqy71bajv6,128.0,Madonna,Alona,Self,circle,1111.0,e,mismatch,False
fqy71bajv6,129.0,Madonna,Alona,Stranger,square,821.0,e,mismatch,True
fqy71bajv6,130.0,Madonna,Alona,Self,square,866.0,e,mismatch,True
fqy71bajv6,131.0,Madonna,Alona,Friend,square,1574.0,i,match,True
fqy71bajv6,132.0,Madonna,Alona,Stranger,square,708.0,e,mismatch,True
fqy71bajv6,133.0,Madonna,Alona,Self,triangle,980.0,e,mismatch,True
fqy71bajv6,134.0,Madonna,Alona,Friend,triangle,1936.0,e,mismatch,True
fqy71bajv6,135.0,Madonna,Alona,Self,triangle,784.0,e,mismatch,True
fqy71bajv6,136.0,Madonna,Alona,Stranger,square,909.0,i,match,False
fqy71bajv6,137.0,Madonna,Alona,Self,triangle,702.0,e,mismatch,True
fqy71bajv6,138.0,Madonna,Alona,Self,circle,587.0,i,match,True
fqy71bajv6,139.0,Madonna,Alona,Friend,square,1059.0,i,match,True
fqy71bajv6,140.0,Madonna,Alona,Self,triangle,580.0,e,mismatch,True
fqy71bajv6,141.0,Madonna,Alona,Friend,triangle,599.0,e,mismatch,True
fqy71bajv6,142.0,Madonna,Alona,Friend,square,726.0,e,mismatch,False
fqy71bajv6,143.0,Madonna,Alona,Friend,triangle,943.0,e,mismatch,True
fqy71bajv6,144.0,Madonna,Alona,Stranger,circle,782.0,e,mismatch,True
fqy71bajv6,145.0,Madonna,Alona,Self,circle,977.0,i,match,True
fqy71bajv6,146.0,Madonna,Alona,Stranger,triangle,618.0,e,mismatch,False
fqy71bajv6,147.0,Madonna,Alona,Self,circle,845.0,i,match,True
fqy71bajv6,148.0,Madonna,Alona,Friend,square,746.0,i,match,True
fqy71bajv6,149.0,Madonna,Alona,Self,circle,824.0,i,match,True
fqy71bajv6,150.0,Madonna,Alona,Stranger,square,802.0,e,mismatch,True
fqy71bajv6,151.0,Madonna,Alona,Self,circle,721.0,i,match,True
fqy71bajv6,152.0,Madonna,Alona,Stranger,triangle,981.0,i,match,True
fqy71bajv6,153.0,Madonna,Alona,Self,circle,792.0,i,match,True
fqy71bajv6,154.0,Madonna,Alona,Friend,square,696.0,i,match,True
fqy71bajv6,155.0,Madonna,Alona,Stranger,circle,779.0,e,mismatch,True
fqy71bajv6,156.0,Madonna,Alona,Stranger,square,760.0,e,mismatch,True
fqy71bajv6,157.0,Madonna,Alona,Self,triangle,833.0,e,mismatch,True
fqy71bajv6,158.0,Madonna,Alona,Stranger,square,1031.0,i,match,False
fqy71bajv6,159.0,Madonna,Alona,Friend,square,912.0,i,match,True
fqy71bajv6,160.0,Madonna,Alona,Self,square,874.0,e,mismatch,True
fqy71bajv6,161.0,Madonna,Alona,Stranger,square,1024.0,e,mismatch,True
fqy71bajv6,162.0,Madonna,Alona,Stranger,triangle,776.0,i,match,True
fqy71bajv6,163.0,Madonna,Alona,Friend,circle,877.0,i,match,False
fqy71bajv6,164.0,Madonna,Alona,Self,circle,600.0,i,match,True
fqy71bajv6,165.0,Madonna,Alona,Friend,triangle,587.0,e,mismatch,True
fqy71bajv6,166.0,Madonna,Alona,Self,circle,664.0,i,match,True
fqy71bajv6,167.0,Madonna,Alona,Friend,square,784.0,e,mismatch,False
fqy71bajv6,168.0,Madonna,Alona,Stranger,circle,3870.0,i,match,False
fqy71bajv6,169.0,Madonna,Alona,Stranger,circle,,,,False
fqy71bajv6,170.0,Madonna,Alona,Stranger,triangle,1406.0,i,match,True
fqy71bajv6,171.0,Madonna,Alona,Stranger,square,932.0,e,mismatch,True
fqy71bajv6,172.0,Madonna,Alona,Self,triangle,453.0,i,match,False
fqy71bajv6,173.0,Madonna,Alona,Stranger,circle,1148.0,e,mismatch,True
fqy71bajv6,174.0,Madonna,Alona,Self,square,825.0,e,mismatch,True
fqy71bajv6,175.0,Madonna,Alona,Stranger,square,1894.0,i,match,False
fqy71bajv6,176.0,Madonna,Alona,Stranger,square,926.0,e,mismatch,True
fqy71bajv6,177.0,Madonna,Alona,Self,triangle,4020.0,i,match,False
fqy71bajv6,178.0,Madonna,Alona,Stranger,triangle,1130.0,i,match,True
fqy71bajv6,179.0,Madonna,Alona,Stranger,triangle,,,,False
fqy71bajv6,180.0,Madonna,Alona,Friend,circle,,,,False
fqy71bajv6,181.0,Madonna,Alona,Stranger,square,1738.0,e,mismatch,True
fqy71bajv6,182.0,Madonna,Alona,Stranger,triangle,424.0,i,match,True
fqy71bajv6,183.0,Madonna,Alona,Friend,circle,760.0,e,mismatch,True
fqy71bajv6,184.0,Madonna,Alona,Stranger,circle,309.0,i,match,False
fqy71bajv6,185.0,Madonna,Alona,Stranger,circle,389.0,e,mismatch,True
fqy71bajv6,186.0,Madonna,Alona,Stranger,triangle,409.0,e,mismatch,False
fqy71bajv6,187.0,Madonna,Alona,Stranger,circle,471.0,i,match,False
fqy71bajv6,188.0,Madonna,Alona,Stranger,circle,664.0,e,mismatch,True
fqy71bajv6,189.0,Madonna,Alona,Self,circle,673.0,i,match,True
fqy71bajv6,190.0,Madonna,Alona,Friend,circle,647.0,e,mismatch,True
fqy71bajv6,191.0,Madonna,Alona,Stranger,triangle,1126.0,i,match,True
fqy71bajv6,192.0,Madonna,Alona,Self,triangle,808.0,e,mismatch,True
fqy71bajv6,193.0,Madonna,Alona,Stranger,triangle,362.0,e,mismatch,False
fqy71bajv6,194.0,Madonna,Alona,Stranger,circle,1185.0,e,mismatch,True
fqy71bajv6,195.0,Madonna,Alona,Self,square,951.0,e,mismatch,True
fqy71bajv6,196.0,Madonna,Alona,Stranger,square,600.0,e,mismatch,True
fqy71bajv6,197.0,Madonna,Alona,Self,square,725.0,e,mismatch,True
fqy71bajv6,198.0,Madonna,Alona,Self,square,489.0,e,mismatch,True
fqy71bajv6,199.0,Madonna,Alona,Friend,square,437.0,e,mismatch,False
fqy71bajv6,200.0,Madonna,Alona,Friend,triangle,794.0,e,mismatch,True
fqy71bajv6,201.0,Madonna,Alona,Stranger,square,648.0,e,mismatch,True
fqy71bajv6,202.0,Madonna,Alona,Self,square,747.0,e,mismatch,True
fqy71bajv6,203.0,Madonna,Alona,Stranger,circle,689.0,e,mismatch,True
fqy71bajv6,204.0,Madonna,Alona,Friend,square,1368.0,i,match,True
fqy71bajv6,205.0,Madonna,Alona,Friend,circle,790.0,e,mismatch,True
fqy71bajv6,206.0,Madonna,Alona,Friend,triangle,629.0,e,mismatch,True
fqy71bajv6,207.0,Madonna,Alona,Stranger,circle,796.0,e,mismatch,True
fqy71bajv6,208.0,Madonna,Alona,Self,triangle,721.0,e,mismatch,True
fqy71bajv6,209.0,Madonna,Alona,Stranger,triangle,985.0,e,mismatch,False
fqy71bajv6,210.0,Madonna,Alona,Self,square,821.0,e,mismatch,True
fqy71bajv6,211.0,Madonna,Alona,Stranger,square,963.0,i,match,False
fqy71bajv6,212.0,Madonna,Alona,Stranger,triangle,662.0,i,match,True
fqy71bajv6,213.0,Madonna,Alona,Stranger,square,546.0,e,mismatch,True
fqy71bajv6,214.0,Madonna,Alona,Friend,circle,1158.0,e,mismatch,True
fqy71bajv6,215.0,Madonna,Alona,Self,triangle,655.0,e,mismatch,True
fqy71bajv6,216.0,Madonna,Alona,Self,circle,597.0,i,match,True
fqy71bajv6,217.0,Madonna,Alona,Stranger,triangle,643.0,e,mismatch,False
fqy71bajv6,218.0,Madonna,Alona,Stranger,triangle,689.0,i,match,True
fqy71bajv6,219.0,Madonna,Alona,Self,triangle,623.0,e,mismatch,True
fqy71bajv6,220.0,Madonna,Alona,Friend,triangle,971.0,e,mismatch,True
fqy71bajv6,221.0,Madonna,Alona,Friend,circle,970.0,e,mismatch,True
fqy71bajv6,222.0,Madonna,Alona,Self,circle,782.0,i,match,True
fqy71bajv6,223.0,Madonna,Alona,Self,circle,674.0,i,match,True
fqy71bajv6,224.0,Madonna,Alona,Friend,triangle,879.0,e,mismatch,True
fqy71bajv6,225.0,Madonna,Alona,Self,circle,615.0,i,match,True
fqy71bajv6,226.0,Madonna,Alona,Stranger,circle,731.0,e,mismatch,True
fqy71bajv6,227.0,Madonna,Alona,Self,circle,574.0,e,mismatch,False
fqy71bajv6,228.0,Madonna,Alona,Self,triangle,1006.0,e,mismatch,True
fqy71bajv6,229.0,Madonna,Alona,Stranger,triangle,572.0,e,mismatch,False
fqy71bajv6,230.0,Madonna,Alona,Friend,triangle,1159.0,e,mismatch,True
fqy71bajv6,231.0,Madonna,Alona,Self,square,878.0,e,mismatch,True
fqy71bajv6,232.0,Madonna,Alona,Self,square,415.0,e,mismatch,True
fqy71bajv6,233.0,Madonna,Alona,Stranger,triangle,555.0,e,mismatch,False
fqy71bajv6,234.0,Madonna,Alona,Friend,circle,649.0,i,match,False
fqy71bajv6,235.0,Madonna,Alona,Stranger,triangle,527.0,e,mismatch,False
fqy71bajv6,236.0,Madonna,Alona,Self,square,852.0,e,mismatch,True
fqy71bajv6,237.0,Madonna,Alona,Stranger,triangle,476.0,e,mismatch,False
fqy71bajv6,238.0,Madonna,Alona,Friend,circle,1104.0,e,mismatch,True
fqy71bajv6,239.0,Madonna,Alona,Stranger,square,707.0,e,mismatch,True
fqy71bajv6,240.0,Madonna,Alona,Stranger,square,620.0,e,mismatch,True
fqy71bajv6,241.0,Madonna,Alona,Friend,circle,776.0,e,mismatch,True
fqy71bajv6,242.0,Madonna,Alona,Friend,triangle,1002.0,i,match,False
fqy71bajv6,243.0,Madonna,Alona,Self,triangle,924.0,e,mismatch,True
fqy71bajv6,244.0,Madonna,Alona,Self,square,756.0,e,mismatch,True
fqy71bajv6,245.0,Madonna,Alona,Friend,circle,660.0,e,mismatch,True
fqy71bajv6,246.0,Madonna,Alona,Self,square,996.0,e,mismatch,True
fqy71bajv6,247.0,Madonna,Alona,Stranger,square,2454.0,e,mismatch,True
fqy71bajv6,248.0,Madonna,Alona,Self,circle,652.0,i,match,True
fqy71bajv6,249.0,Madonna,Alona,Stranger,square,1406.0,e,mismatch,True
fqy71bajv6,250.0,Madonna,Alona,Friend,square,811.0,e,mismatch,False
fqy71bajv6,251.0,Madonna,Alona,Self,square,889.0,e,mismatch,True
fqy71bajv6,252.0,Madonna,Alona,Friend,square,713.0,i,match,True
fqy71bajv6,253.0,Madonna,Alona,Friend,square,616.0,i,match,True
fqy71bajv6,254.0,Madonna,Alona,Friend,square,658.0,i,match,True
fqy71bajv6,255.0,Madonna,Alona,Stranger,triangle,765.0,e,mismatch,False
fqy71bajv6,256.0,Madonna,Alona,Self,square,918.0,e,mismatch,True
fqy71bajv6,257.0,Madonna,Alona,Stranger,square,706.0,e,mismatch,True
fqy71bajv6,258.0,Madonna,Alona,Friend,triangle,1486.0,i,match,False
fqy71bajv6,259.0,Madonna,Alona,Stranger,circle,2241.0,e,mismatch,True
fqy71bajv6,260.0,Madonna,Alona,Friend,triangle,1424.0,e,mismatch,True
fqy71bajv6,261.0,Madonna,Alona,Stranger,triangle,1076.0,i,match,True
fqy71bajv6,262.0,Madonna,Alona,Stranger,square,675.0,e,mismatch,True
fqy71bajv6,263.0,Madonna,Alona,Friend,triangle,775.0,e,mismatch,True
fqy71bajv6,264.0,Madonna,Alona,Stranger,circle,551.0,e,mismatch,True
fqy71bajv6,265.0,Madonna,Alona,Self,triangle,832.0,e,mismatch,True
fqy71bajv6,266.0,Madonna,Alona,Friend,circle,748.0,e,mismatch,True
fqy71bajv6,267.0,Madonna,Alona,Stranger,triangle,1827.0,e,mismatch,False
fqy71bajv6,268.0,Madonna,Alona,Self,triangle,849.0,e,mismatch,True
fqy71bajv6,269.0,Madonna,Alona,Friend,square,716.0,i,match,True
fqy71bajv6,270.0,Madonna,Alona,Stranger,circle,558.0,e,mismatch,True
fqy71bajv6,271.0,Madonna,Alona,Self,circle,894.0,i,match,True
fqy71bajv6,272.0,Madonna,Alona,Self,triangle,581.0,e,mismatch,True
fqy71bajv6,273.0,Madonna,Alona,Stranger,triangle,604.0,e,mismatch,False
fqy71bajv6,274.0,Madonna,Alona,Stranger,triangle,754.0,e,mismatch,False
fqy71bajv6,275.0,Madonna,Alona,Friend,square,725.0,e,mismatch,False
fqy71bajv6,276.0,Madonna,Alona,Stranger,circle,658.0,e,mismatch,True
fqy71bajv6,277.0,Madonna,Alona,Stranger,triangle,609.0,e,mismatch,False
fqy71bajv6,278.0,Madonna,Alona,Self,circle,600.0,i,match,True
fqy71bajv6,279.0,Madonna,Alona,Self,square,1863.0,e,mismatch,True
fqy71bajv6,280.0,Madonna,Alona,Self,triangle,863.0,e,mismatch,True
fqy71bajv6,281.0,Madonna,Alona,Friend,triangle,2116.0,e,mismatch,True
fqy71bajv6,282.0,Madonna,Alona,Self,square,828.0,e,mismatch,True
fqy71bajv6,283.0,Madonna,Alona,Self,square,882.0,e,mismatch,True
fqy71bajv6,284.0,Madonna,Alona,Friend,triangle,1288.0,i,match,False
fqy71bajv6,285.0,Madonna,Alona,Self,square,1328.0,e,mismatch,True
fqy71bajv6,286.0,Madonna,Alona,Friend,square,791.0,i,match,True
fqy71bajv6,287.0,Madonna,Alona,Friend,triangle,971.0,e,mismatch,True
fqy71bajv6,288.0,Madonna,Alona,Stranger,circle,1339.0,e,mismatch,True
fqy71bajv6,289.0,Madonna,Alona,Friend,circle,951.0,e,mismatch,True
fqy71bajv6,290.0,Madonna,Alona,Friend,circle,581.0,e,mismatch,True
fqy71bajv6,291.0,Madonna,Alona,Self,triangle,911.0,e,mismatch,True
fqy71bajv6,292.0,Madonna,Alona,Friend,circle,943.0,e,mismatch,True
fqy71bajv6,293.0,Madonna,Alona,Friend,triangle,838.0,e,mismatch,True
fqy71bajv6,294.0,Madonna,Alona,Friend,triangle,733.0,e,mismatch,True
fqy71bajv6,295.0,Madonna,Alona,Self,square,1842.0,e,mismatch,True
fqy71bajv6,296.0,Madonna,Alona,Stranger,triangle,1176.0,i,match,True
fqy71bajv6,297.0,Madonna,Alona,Stranger,circle,750.0,e,mismatch,True
fqy71bajv6,298.0,Madonna,Alona,Self,circle,440.0,e,mismatch,False
fqy71bajv6,299.0,Madonna,Alona,Friend,circle,690.0,e,mismatch,True
fqy71bajv6,300.0,Madonna,Alona,Friend,triangle,1021.0,e,mismatch,True
fqy71bajv6,301.0,Madonna,Alona,Self,square,957.0,e,mismatch,True
fqy71bajv6,302.0,Madonna,Alona,Friend,square,597.0,e,mismatch,False
fqy71bajv6,303.0,Madonna,Alona,Stranger,square,1049.0,e,mismatch,True
fqy71bajv6,304.0,Madonna,Alona,Friend,triangle,743.0,i,match,False
fqy71bajv6,305.0,Madonna,Alona,Friend,circle,805.0,e,mismatch,True
fqy71bajv6,306.0,Madonna,Alona,Stranger,circle,753.0,e,mismatch,True
fqy71bajv6,307.0,Madonna,Alona,Stranger,circle,422.0,e,mismatch,True
fqy71bajv6,308.0,Madonna,Alona,Self,square,1036.0,e,mismatch,True
fqy71bajv6,309.0,Madonna,Alona,Stranger,square,502.0,e,mismatch,True
fqy71bajv6,310.0,Madonna,Alona,Friend,square,466.0,e,mismatch,False
fqy71bajv6,311.0,Madonna,Alona,Friend,triangle,487.0,e,mismatch,True
fqy71bajv6,312.0,Madonna,Alona,Self,triangle,950.0,e,mismatch,True
fqy71bajv6,313.0,Madonna,Alona,Friend,square,703.0,i,match,True
fqy71bajv6,314.0,Madonna,Alona,Stranger,circle,708.0,e,mismatch,True
fqy71bajv6,315.0,Madonna,Alona,Friend,square,1259.0,i,match,True
fqy71bajv6,316.0,Madonna,Alona,Friend,circle,987.0,e,mismatch,True
fqy71bajv6,317.0,Madonna,Alona,Self,circle,545.0,i,match,True
fqy71bajv6,318.0,Madonna,Alona,Friend,circle,822.0,e,mismatch,True
fqy71bajv6,319.0,Madonna,Alona,Stranger,square,739.0,e,mismatch,True
fqy71bajv6,320.0,Madonna,Alona,Friend,circle,846.0,e,mismatch,True
fqy71bajv6,321.0,Madonna,Alona,Stranger,triangle,818.0,e,mismatch,False
fqy71bajv6,322.0,Madonna,Alona,Self,square,691.0,e,mismatch,True
fqy71bajv6,323.0,Madonna,Alona,Self,triangle,1483.0,e,mismatch,True
fqy71bajv6,324.0,Madonna,Alona,Friend,circle,1054.0,e,mismatch,True
sx9kmgaj4y,1.0,Eminem,xxx,Friend,cercle,1054.0,i,mismatch,False
sx9kmgaj4y,2.0,Eminem,xxx,Stranger,cercle,721.0,i,mismatch,True
sx9kmgaj4y,3.0,Eminem,xxx,Stranger,cercle,537.0,i,mismatch,True
sx9kmgaj4y,4.0,Eminem,xxx,Friend,carré,434.0,i,mismatch,True
sx9kmgaj4y,5.0,Eminem,xxx,Friend,carré,401.0,i,mismatch,True
sx9kmgaj4y,6.0,Eminem,xxx,Friend,cercle,606.0,e,match,True
sx9kmgaj4y,7.0,Eminem,xxx,Self,cercle,696.0,i,mismatch,True
sx9kmgaj4y,8.0,Eminem,xxx,Stranger,carré,1225.0,e,match,False
sx9kmgaj4y,9.0,Eminem,xxx,Stranger,triangle,601.0,e,match,True
sx9kmgaj4y,10.0,Eminem,xxx,Friend,cercle,846.0,i,mismatch,False
sx9kmgaj4y,11.0,Eminem,xxx,Self,carré,915.0,e,match,True
sx9kmgaj4y,12.0,Eminem,xxx,Self,triangle,1147.0,i,mismatch,True
sx9kmgaj4y,13.0,Eminem,xxx,Self,triangle,794.0,i,mismatch,True
sx9kmgaj4y,14.0,Eminem,xxx,Stranger,triangle,1206.0,e,match,True
sx9kmgaj4y,15.0,Eminem,xxx,Stranger,cercle,763.0,i,mismatch,True
sx9kmgaj4y,16.0,Eminem,xxx,Stranger,cercle,1102.0,i,mismatch,True
sx9kmgaj4y,17.0,Eminem,xxx,Friend,triangle,866.0,i,mismatch,True
sx9kmgaj4y,18.0,Eminem,xxx,Friend,triangle,457.0,i,mismatch,True
sx9kmgaj4y,19.0,Eminem,xxx,Self,cercle,879.0,i,mismatch,True
sx9kmgaj4y,20.0,Eminem,xxx,Friend,triangle,522.0,i,mismatch,True
sx9kmgaj4y,21.0,Eminem,xxx,Stranger,triangle,805.0,e,match,True
sx9kmgaj4y,22.0,Eminem,xxx,Stranger,cercle,667.0,i,mismatch,True
sx9kmgaj4y,23.0,Eminem,xxx,Stranger,triangle,586.0,i,mismatch,False
sx9kmgaj4y,24.0,Eminem,xxx,Self,cercle,652.0,i,mismatch,True
sx9kmgaj4y,25.0,Eminem,xxx,Self,carré,479.0,e,match,True
sx9kmgaj4y,26.0,Eminem,xxx,Friend,carré,902.0,e,match,False
sx9kmgaj4y,27.0,Eminem,xxx,Stranger,cercle,575.0,e,match,False
sx9kmgaj4y,28.0,Eminem,xxx,Friend,triangle,399.0,e,match,False
sx9kmgaj4y,29.0,Eminem,xxx,Self,cercle,289.0,e,match,False
sx9kmgaj4y,30.0,Eminem,xxx,Stranger,carré,230.0,e,match,False
sx9kmgaj4y,31.0,Eminem,xxx,Self,carré,698.0,i,mismatch,False
sx9kmgaj4y,32.0,Eminem,xxx,Friend,triangle,603.0,i,mismatch,True
sx9kmgaj4y,33.0,Eminem,xxx,Stranger,cercle,922.0,i,mismatch,True
sx9kmgaj4y,34.0,Eminem,xxx,Stranger,triangle,506.0,e,match,True
sx9kmgaj4y,35.0,Eminem,xxx,Stranger,triangle,736.0,e,match,True
sx9kmgaj4y,36.0,Eminem,xxx,Friend,cercle,441.0,e,match,True
sx9kmgaj4y,37.0,Eminem,xxx,Self,triangle,687.0,i,mismatch,True
sx9kmgaj4y,38.0,Eminem,xxx,Stranger,carré,772.0,i,mismatch,True
sx9kmgaj4y,39.0,Eminem,xxx,Self,cercle,615.0,i,mismatch,True
sx9kmgaj4y,40.0,Eminem,xxx,Self,cercle,513.0,i,mismatch,True
sx9kmgaj4y,41.0,Eminem,xxx,Stranger,cercle,491.0,i,mismatch,True
sx9kmgaj4y,42.0,Eminem,xxx,Friend,carré,478.0,e,match,False
sx9kmgaj4y,43.0,Eminem,xxx,Self,carré,388.0,e,match,True
sx9kmgaj4y,44.0,Eminem,xxx,Self,cercle,692.0,i,mismatch,True
sx9kmgaj4y,45.0,Eminem,xxx,Friend,triangle,1002.0,e,match,False
sx9kmgaj4y,46.0,Eminem,xxx,Self,cercle,679.0,e,match,False
sx9kmgaj4y,47.0,Eminem,xxx,Friend,cercle,235.0,i,mismatch,False
sx9kmgaj4y,48.0,Eminem,xxx,Self,carré,131.0,e,match,True
sx9kmgaj4y,49.0,Eminem,xxx,Friend,triangle,752.0,i,mismatch,True
sx9kmgaj4y,50.0,Eminem,xxx,Self,triangle,937.0,i,mismatch,True
sx9kmgaj4y,51.0,Eminem,xxx,Self,triangle,521.0,i,mismatch,True
sx9kmgaj4y,52.0,Eminem,xxx,Friend,triangle,552.0,i,mismatch,True
sx9kmgaj4y,53.0,Eminem,xxx,Self,triangle,575.0,i,mismatch,True
sx9kmgaj4y,54.0,Eminem,xxx,Self,triangle,506.0,i,mismatch,True
sx9kmgaj4y,55.0,Eminem,xxx,Friend,triangle,710.0,i,mismatch,True
sx9kmgaj4y,56.0,Eminem,xxx,Self,triangle,581.0,i,mismatch,True
sx9kmgaj4y,57.0,Eminem,xxx,Friend,cercle,752.0,e,match,True
sx9kmgaj4y,58.0,Eminem,xxx,Stranger,triangle,736.0,e,match,True
sx9kmgaj4y,59.0,Eminem,xxx,Stranger,carré,678.0,i,mismatch,True
sx9kmgaj4y,60.0,Eminem,xxx,Stranger,carré,871.0,i,mismatch,True
sx9kmgaj4y,61.0,Eminem,xxx,Self,cercle,1177.0,i,mismatch,True
sx9kmgaj4y,62.0,Eminem,xxx,Friend,triangle,797.0,i,mismatch,True
sx9kmgaj4y,63.0,Eminem,xxx,Self,carré,766.0,i,mismatch,False
sx9kmgaj4y,64.0,Eminem,xxx,Stranger,cercle,785.0,e,match,False
sx9kmgaj4y,65.0,Eminem,xxx,Self,cercle,722.0,i,mismatch,True
sx9kmgaj4y,66.0,Eminem,xxx,Friend,carré,675.0,i,mismatch,True
sx9kmgaj4y,67.0,Eminem,xxx,Friend,carré,463.0,i,mismatch,True
sx9kmgaj4y,68.0,Eminem,xxx,Friend,triangle,751.0,i,mismatch,True
sx9kmgaj4y,69.0,Eminem,xxx,Self,carré,671.0,e,match,True
sx9kmgaj4y,70.0,Eminem,xxx,Self,cercle,617.0,i,mismatch,True
sx9kmgaj4y,71.0,Eminem,xxx,Self,triangle,1042.0,i,mismatch,True
sx9kmgaj4y,72.0,Eminem,xxx,Stranger,triangle,741.0,i,mismatch,False
sx9kmgaj4y,73.0,Eminem,xxx,Stranger,carré,438.0,i,mismatch,True
sx9kmgaj4y,74.0,Eminem,xxx,Self,carré,624.0,i,mismatch,False
sx9kmgaj4y,75.0,Eminem,xxx,Stranger,carré,399.0,e,match,False
sx9kmgaj4y,76.0,Eminem,xxx,Stranger,carré,231.0,i,mismatch,True
sx9kmgaj4y,77.0,Eminem,xxx,Friend,triangle,387.0,e,match,False
sx9kmgaj4y,78.0,Eminem,xxx,Self,triangle,351.0,e,match,False
sx9kmgaj4y,79.0,Eminem,xxx,Friend,cercle,153.0,i,mismatch,False
sx9kmgaj4y,80.0,Eminem,xxx,Self,cercle,217.0,e,match,False
sx9kmgaj4y,81.0,Eminem,xxx,Stranger,cercle,87.0,i,mismatch,True
sx9kmgaj4y,82.0,Eminem,xxx,Self,triangle,169.0,e,match,False
sx9kmgaj4y,83.0,Eminem,xxx,Friend,carré,252.0,i,mismatch,True
sx9kmgaj4y,84.0,Eminem,xxx,Friend,cercle,235.0,e,match,True
sx9kmgaj4y,85.0,Eminem,xxx,Self,cercle,279.0,e,match,False
sx9kmgaj4y,86.0,Eminem,xxx,Self,triangle,251.0,i,mismatch,True
sx9kmgaj4y,87.0,Eminem,xxx,Stranger,carré,658.0,e,match,False
sx9kmgaj4y,88.0,Eminem,xxx,Stranger,cercle,190.0,i,mismatch,True
sx9kmgaj4y,89.0,Eminem,xxx,Friend,triangle,154.0,e,match,False
sx9kmgaj4y,90.0,Eminem,xxx,Friend,carré,73.0,i,mismatch,True
sx9kmgaj4y,91.0,Eminem,xxx,Stranger,triangle,77.0,e,match,True
sx9kmgaj4y,92.0,Eminem,xxx,Stranger,cercle,327.0,i,mismatch,True
sx9kmgaj4y,93.0,Eminem,xxx,Friend,carré,538.0,e,match,False
sx9kmgaj4y,94.0,Eminem,xxx,Self,carré,475.0,e,match,True
sx9kmgaj4y,95.0,Eminem,xxx,Self,cercle,745.0,i,mismatch,True
sx9kmgaj4y,96.0,Eminem,xxx,Stranger,carré,922.0,i,mismatch,True
sx9kmgaj4y,97.0,Eminem,xxx,Stranger,cercle,625.0,e,match,False
sx9kmgaj4y,98.0,Eminem,xxx,Stranger,carré,735.0,i,mismatch,True
sx9kmgaj4y,99.0,Eminem,xxx,Self,carré,947.0,e,match,True
sx9kmgaj4y,100.0,Eminem,xxx,Stranger,carré,591.0,i,mismatch,True
sx9kmgaj4y,101.0,Eminem,xxx,Friend,cercle,585.0,i,mismatch,False
sx9kmgaj4y,102.0,Eminem,xxx,Friend,cercle,404.0,e,match,True
sx9kmgaj4y,103.0,Eminem,xxx,Friend,cercle,337.0,e,match,True
sx9kmgaj4y,104.0,Eminem,xxx,Friend,cercle,385.0,e,match,True
sx9kmgaj4y,105.0,Eminem,xxx,Friend,cercle,535.0,e,match,True
sx9kmgaj4y,106.0,Eminem,xxx,Self,cercle,555.0,i,mismatch,True
sx9kmgaj4y,107.0,Eminem,xxx,Self,triangle,715.0,i,mismatch,True
sx9kmgaj4y,108.0,Eminem,xxx,Self,cercle,951.0,i,mismatch,True
sx9kmgaj4y,109.0,Eminem,xxx,Stranger,triangle,528.0,e,match,True
sx9kmgaj4y,110.0,Eminem,xxx,Stranger,triangle,564.0,e,match,True
sx9kmgaj4y,111.0,Eminem,xxx,Stranger,carré,615.0,i,mismatch,True
sx9kmgaj4y,112.0,Eminem,xxx,Friend,cercle,909.0,i,mismatch,False
sx9kmgaj4y,113.0,Eminem,xxx,Stranger,carré,685.0,i,mismatch,True
sx9kmgaj4y,114.0,Eminem,xxx,Friend,cercle,589.0,i,mismatch,False
sx9kmgaj4y,115.0,Eminem,xxx,Stranger,cercle,678.0,i,mismatch,True
sx9kmgaj4y,116.0,Eminem,xxx,Self,carré,1037.0,e,match,True
sx9kmgaj4y,117.0,Eminem,xxx,Friend,carré,647.0,i,mismatch,True
sx9kmgaj4y,118.0,Eminem,xxx,Self,carré,474.0,e,match,True
sx9kmgaj4y,119.0,Eminem,xxx,Stranger,carré,579.0,i,mismatch,True
sx9kmgaj4y,120.0,Eminem,xxx,Self,carré,651.0,e,match,True
sx9kmgaj4y,121.0,Eminem,xxx,Self,carré,481.0,e,match,True
sx9kmgaj4y,122.0,Eminem,xxx,Friend,cercle,575.0,i,mismatch,False
sx9kmgaj4y,123.0,Eminem,xxx,Stranger,triangle,753.0,e,match,True
sx9kmgaj4y,124.0,Eminem,xxx,Friend,triangle,504.0,e,match,False
sx9kmgaj4y,125.0,Eminem,xxx,Friend,cercle,874.0,e,match,True
sx9kmgaj4y,126.0,Eminem,xxx,Friend,triangle,672.0,i,mismatch,True
sx9kmgaj4y,127.0,Eminem,xxx,Friend,triangle,803.0,i,mismatch,True
sx9kmgaj4y,128.0,Eminem,xxx,Self,carré,605.0,e,match,True
sx9kmgaj4y,129.0,Eminem,xxx,Self,triangle,688.0,i,mismatch,True
sx9kmgaj4y,130.0,Eminem,xxx,Friend,carré,1219.0,i,mismatch,True
sx9kmgaj4y,131.0,Eminem,xxx,Stranger,carré,971.0,i,mismatch,True
sx9kmgaj4y,132.0,Eminem,xxx,Self,carré,653.0,e,match,True
sx9kmgaj4y,133.0,Eminem,xxx,Stranger,carré,583.0,i,mismatch,True
sx9kmgaj4y,134.0,Eminem,xxx,Self,carré,625.0,e,match,True
sx9kmgaj4y,135.0,Eminem,xxx,Stranger,cercle,1015.0,i,mismatch,True
sx9kmgaj4y,136.0,Eminem,xxx,Stranger,cercle,715.0,i,mismatch,True
sx9kmgaj4y,137.0,Eminem,xxx,Stranger,carré,602.0,i,mismatch,True
sx9kmgaj4y,138.0,Eminem,xxx,Friend,carré,737.0,i,mismatch,True
sx9kmgaj4y,139.0,Eminem,xxx,Friend,cercle,708.0,e,match,True
sx9kmgaj4y,140.0,Eminem,xxx,Friend,cercle,903.0,e,match,True
sx9kmgaj4y,141.0,Eminem,xxx,Stranger,cercle,607.0,i,mismatch,True
sx9kmgaj4y,142.0,Eminem,xxx,Self,triangle,703.0,i,mismatch,True
sx9kmgaj4y,143.0,Eminem,xxx,Self,cercle,585.0,i,mismatch,True
sx9kmgaj4y,144.0,Eminem,xxx,Self,carré,639.0,e,match,True
sx9kmgaj4y,145.0,Eminem,xxx,Self,cercle,579.0,i,mismatch,True
sx9kmgaj4y,146.0,Eminem,xxx,Friend,carré,822.0,i,mismatch,True
sx9kmgaj4y,147.0,Eminem,xxx,Stranger,triangle,921.0,e,match,True
sx9kmgaj4y,148.0,Eminem,xxx,Self,carré,720.0,e,match,True
sx9kmgaj4y,149.0,Eminem,xxx,Friend,triangle,643.0,i,mismatch,True
sx9kmgaj4y,150.0,Eminem,xxx,Stranger,triangle,812.0,e,match,True
sx9kmgaj4y,151.0,Eminem,xxx,Friend,triangle,593.0,i,mismatch,True
sx9kmgaj4y,152.0,Eminem,xxx,Self,cercle,571.0,e,match,False
sx9kmgaj4y,153.0,Eminem,xxx,Self,triangle,723.0,i,mismatch,True
sx9kmgaj4y,154.0,Eminem,xxx,Self,triangle,715.0,i,mismatch,True
sx9kmgaj4y,155.0,Eminem,xxx,Self,carré,543.0,e,match,True
sx9kmgaj4y,156.0,Eminem,xxx,Self,triangle,740.0,i,mismatch,True
sx9kmgaj4y,157.0,Eminem,xxx,Friend,triangle,658.0,i,mismatch,True
sx9kmgaj4y,158.0,Eminem,xxx,Self,triangle,834.0,i,mismatch,True
sx9kmgaj4y,159.0,Eminem,xxx,Stranger,cercle,916.0,e,match,False
sx9kmgaj4y,160.0,Eminem,xxx,Self,cercle,663.0,e,match,False
sx9kmgaj4y,161.0,Eminem,xxx,Friend,carré,1081.0,i,mismatch,True
sx9kmgaj4y,162.0,Eminem,xxx,Friend,cercle,596.0,i,mismatch,False
sx9kmgaj4y,163.0,Eminem,xxx,Self,carré,613.0,e,match,True
sx9kmgaj4y,164.0,Eminem,xxx,Stranger,cercle,543.0,i,mismatch,True
sx9kmgaj4y,165.0,Eminem,xxx,Stranger,triangle,502.0,i,mismatch,False
sx9kmgaj4y,166.0,Eminem,xxx,Friend,carré,582.0,i,mismatch,True
sx9kmgaj4y,167.0,Eminem,xxx,Stranger,cercle,832.0,i,mismatch,True
sx9kmgaj4y,168.0,Eminem,xxx,Stranger,triangle,531.0,e,match,True
sx9kmgaj4y,169.0,Eminem,xxx,Stranger,carré,863.0,i,mismatch,True
sx9kmgaj4y,170.0,Eminem,xxx,Friend,cercle,424.0,e,match,True
sx9kmgaj4y,171.0,Eminem,xxx,Stranger,triangle,919.0,e,match,True
sx9kmgaj4y,172.0,Eminem,xxx,Friend,cercle,840.0,e,match,True
sx9kmgaj4y,173.0,Eminem,xxx,Self,carré,427.0,e,match,True
sx9kmgaj4y,174.0,Eminem,xxx,Stranger,cercle,1577.0,i,mismatch,True
sx9kmgaj4y,175.0,Eminem,xxx,Stranger,triangle,747.0,e,match,True
sx9kmgaj4y,176.0,Eminem,xxx,Self,cercle,545.0,i,mismatch,True
sx9kmgaj4y,177.0,Eminem,xxx,Self,cercle,579.0,i,mismatch,True
sx9kmgaj4y,178.0,Eminem,xxx,Stranger,triangle,710.0,e,match,True
sx9kmgaj4y,179.0,Eminem,xxx,Self,triangle,837.0,i,mismatch,True
sx9kmgaj4y,180.0,Eminem,xxx,Stranger,triangle,761.0,e,match,True
sx9kmgaj4y,181.0,Eminem,xxx,Friend,cercle,441.0,e,match,True
sx9kmgaj4y,182.0,Eminem,xxx,Stranger,carré,690.0,i,mismatch,True
sx9kmgaj4y,183.0,Eminem,xxx,Self,carré,500.0,e,match,True
sx9kmgaj4y,184.0,Eminem,xxx,Self,triangle,582.0,i,mismatch,True
sx9kmgaj4y,185.0,Eminem,xxx,Stranger,carré,657.0,i,mismatch,True
sx9kmgaj4y,186.0,Eminem,xxx,Friend,carré,830.0,i,mismatch,True
sx9kmgaj4y,187.0,Eminem,xxx,Friend,carré,531.0,i,mismatch,True
sx9kmgaj4y,188.0,Eminem,xxx,Stranger,triangle,691.0,e,match,True
sx9kmgaj4y,189.0,Eminem,xxx,Friend,cercle,565.0,e,match,True
sx9kmgaj4y,190.0,Eminem,xxx,Stranger,cercle,651.0,i,mismatch,True
sx9kmgaj4y,191.0,Eminem,xxx,Self,carré,604.0,e,match,True
sx9kmgaj4y,192.0,Eminem,xxx,Stranger,carré,504.0,i,mismatch,True
sx9kmgaj4y,193.0,Eminem,xxx,Stranger,cercle,905.0,i,mismatch,True
sx9kmgaj4y,194.0,Eminem,xxx,Self,triangle,695.0,i,mismatch,True
sx9kmgaj4y,195.0,Eminem,xxx,Friend,carré,901.0,e,match,False
sx9kmgaj4y,196.0,Eminem,xxx,Friend,triangle,604.0,i,mismatch,True
sx9kmgaj4y,197.0,Eminem,xxx,Stranger,triangle,725.0,e,match,True
sx9kmgaj4y,198.0,Eminem,xxx,Self,triangle,860.0,i,mismatch,True
sx9kmgaj4y,199.0,Eminem,xxx,Stranger,cercle,1387.0,i,mismatch,True
sx9kmgaj4y,200.0,Eminem,xxx,Friend,triangle,555.0,i,mismatch,True
sx9kmgaj4y,201.0,Eminem,xxx,Stranger,triangle,494.0,i,mismatch,False
sx9kmgaj4y,202.0,Eminem,xxx,Self,carré,574.0,e,match,True
sx9kmgaj4y,203.0,Eminem,xxx,Self,carré,598.0,e,match,True
sx9kmgaj4y,204.0,Eminem,xxx,Stranger,carré,659.0,i,mismatch,True
sx9kmgaj4y,205.0,Eminem,xxx,Self,cercle,726.0,i,mismatch,True
sx9kmgaj4y,206.0,Eminem,xxx,Stranger,cercle,1076.0,i,mismatch,True
sx9kmgaj4y,207.0,Eminem,xxx,Friend,cercle,571.0,e,match,True
sx9kmgaj4y,208.0,Eminem,xxx,Friend,carré,641.0,e,match,False
sx9kmgaj4y,209.0,Eminem,xxx,Self,cercle,642.0,i,mismatch,True
sx9kmgaj4y,210.0,Eminem,xxx,Stranger,triangle,581.0,e,match,True
sx9kmgaj4y,211.0,Eminem,xxx,Self,carré,615.0,e,match,True
sx9kmgaj4y,212.0,Eminem,xxx,Stranger,carré,672.0,i,mismatch,True
sx9kmgaj4y,213.0,Eminem,xxx,Friend,carré,590.0,e,match,False
sx9kmgaj4y,214.0,Eminem,xxx,Friend,carré,722.0,i,mismatch,True
sx9kmgaj4y,215.0,Eminem,xxx,Friend,carré,544.0,i,mismatch,True
sx9kmgaj4y,216.0,Eminem,xxx,Friend,carré,478.0,i,mismatch,True
sx9kmgaj4y,217.0,Eminem,xxx,Friend,triangle,664.0,i,mismatch,True
sx9kmgaj4y,218.0,Eminem,xxx,Stranger,carré,727.0,i,mismatch,True
sx9kmgaj4y,219.0,Eminem,xxx,Self,triangle,620.0,i,mismatch,True
sx9kmgaj4y,220.0,Eminem,xxx,Self,carré,757.0,e,match,True
sx9kmgaj4y,221.0,Eminem,xxx,Friend,triangle,520.0,i,mismatch,True
sx9kmgaj4y,222.0,Eminem,xxx,Friend,triangle,546.0,i,mismatch,True
sx9kmgaj4y,223.0,Eminem,xxx,Self,triangle,733.0,i,mismatch,True
sx9kmgaj4y,224.0,Eminem,xxx,Stranger,cercle,831.0,e,match,False
sx9kmgaj4y,225.0,Eminem,xxx,Stranger,triangle,784.0,e,match,True
sx9kmgaj4y,226.0,Eminem,xxx,Stranger,cercle,560.0,i,mismatch,True
sx9kmgaj4y,227.0,Eminem,xxx,Friend,cercle,649.0,i,mismatch,False
sx9kmgaj4y,228.0,Eminem,xxx,Stranger,triangle,642.0,e,match,True
sx9kmgaj4y,229.0,Eminem,xxx,Stranger,carré,710.0,e,match,False
sx9kmgaj4y,230.0,Eminem,xxx,Self,triangle,754.0,i,mismatch,True
sx9kmgaj4y,231.0,Eminem,xxx,Self,triangle,568.0,i,mismatch,True
sx9kmgaj4y,232.0,Eminem,xxx,Stranger,cercle,1008.0,i,mismatch,True
sx9kmgaj4y,233.0,Eminem,xxx,Stranger,cercle,783.0,i,mismatch,True
sx9kmgaj4y,234.0,Eminem,xxx,Friend,cercle,707.0,i,mismatch,False
sx9kmgaj4y,235.0,Eminem,xxx,Self,cercle,881.0,i,mismatch,True
sx9kmgaj4y,236.0,Eminem,xxx,Stranger,carré,747.0,i,mismatch,True
sx9kmgaj4y,237.0,Eminem,xxx,Self,carré,551.0,e,match,True
sx9kmgaj4y,238.0,Eminem,xxx,Friend,carré,411.0,e,match,False
sx9kmgaj4y,239.0,Eminem,xxx,Self,carré,547.0,e,match,True
sx9kmgaj4y,240.0,Eminem,xxx,Friend,cercle,941.0,e,match,True
sx9kmgaj4y,241.0,Eminem,xxx,Friend,carré,783.0,i,mismatch,True
sx9kmgaj4y,242.0,Eminem,xxx,Self,carré,839.0,e,match,True
sx9kmgaj4y,243.0,Eminem,xxx,Self,carré,619.0,e,match,True
sx9kmgaj4y,244.0,Eminem,xxx,Friend,triangle,547.0,i,mismatch,True
sx9kmgaj4y,245.0,Eminem,xxx,Stranger,cercle,947.0,i,mismatch,True
sx9kmgaj4y,246.0,Eminem,xxx,Stranger,cercle,663.0,i,mismatch,True
sx9kmgaj4y,247.0,Eminem,xxx,Stranger,carré,731.0,i,mismatch,True
sx9kmgaj4y,248.0,Eminem,xxx,Self,cercle,795.0,i,mismatch,True
sx9kmgaj4y,249.0,Eminem,xxx,Stranger,carré,751.0,i,mismatch,True
sx9kmgaj4y,250.0,Eminem,xxx,Self,triangle,569.0,i,mismatch,True
sx9kmgaj4y,251.0,Eminem,xxx,Self,cercle,750.0,i,mismatch,True
sx9kmgaj4y,252.0,Eminem,xxx,Friend,triangle,620.0,i,mismatch,True
sx9kmgaj4y,253.0,Eminem,xxx,Self,triangle,597.0,i,mismatch,True
sx9kmgaj4y,254.0,Eminem,xxx,Self,cercle,1132.0,i,mismatch,True
sx9kmgaj4y,255.0,Eminem,xxx,Self,cercle,537.0,i,mismatch,True
sx9kmgaj4y,256.0,Eminem,xxx,Self,carré,787.0,i,mismatch,False
sx9kmgaj4y,257.0,Eminem,xxx,Friend,carré,553.0,i,mismatch,True
sx9kmgaj4y,258.0,Eminem,xxx,Stranger,triangle,875.0,e,match,True
sx9kmgaj4y,259.0,Eminem,xxx,Stranger,carré,614.0,i,mismatch,True
sx9kmgaj4y,260.0,Eminem,xxx,Friend,carré,503.0,i,mismatch,True
sx9kmgaj4y,261.0,Eminem,xxx,Self,triangle,644.0,i,mismatch,True
sx9kmgaj4y,262.0,Eminem,xxx,Stranger,cercle,604.0,i,mismatch,True
sx9kmgaj4y,263.0,Eminem,xxx,Friend,cercle,726.0,i,mismatch,False
sx9kmgaj4y,264.0,Eminem,xxx,Stranger,triangle,693.0,e,match,True
sx9kmgaj4y,265.0,Eminem,xxx,Stranger,carré,648.0,i,mismatch,True
sx9kmgaj4y,266.0,Eminem,xxx,Self,cercle,565.0,i,mismatch,True
sx9kmgaj4y,267.0,Eminem,xxx,Stranger,triangle,681.0,e,match,True
sx9kmgaj4y,268.0,Eminem,xxx,Friend,carré,481.0,i,mismatch,True
sx9kmgaj4y,269.0,Eminem,xxx,Self,triangle,745.0,i,mismatch,True
sx9kmgaj4y,270.0,Eminem,xxx,Self,cercle,566.0,i,mismatch,True
sx9kmgaj4y,271.0,Eminem,xxx,Stranger,triangle,938.0,e,match,True
sx9kmgaj4y,272.0,Eminem,xxx,Self,cercle,874.0,i,mismatch,True
sx9kmgaj4y,273.0,Eminem,xxx,Stranger,carré,773.0,i,mismatch,True
sx9kmgaj4y,274.0,Eminem,xxx,Self,carré,795.0,i,mismatch,False
sx9kmgaj4y,275.0,Eminem,xxx,Stranger,cercle,840.0,i,mismatch,True
sx9kmgaj4y,276.0,Eminem,xxx,Friend,carré,642.0,i,mismatch,True
sx9kmgaj4y,277.0,Eminem,xxx,Self,cercle,688.0,i,mismatch,True
sx9kmgaj4y,278.0,Eminem,xxx,Self,cercle,568.0,i,mismatch,True
sx9kmgaj4y,279.0,Eminem,xxx,Stranger,carré,716.0,i,mismatch,True
sx9kmgaj4y,280.0,Eminem,xxx,Self,triangle,769.0,i,mismatch,True
sx9kmgaj4y,281.0,Eminem,xxx,Friend,triangle,570.0,i,mismatch,True
sx9kmgaj4y,282.0,Eminem,xxx,Stranger,triangle,815.0,e,match,True
sx9kmgaj4y,283.0,Eminem,xxx,Friend,carré,517.0,i,mismatch,True
sx9kmgaj4y,284.0,Eminem,xxx,Stranger,cercle,538.0,i,mismatch,True
sx9kmgaj4y,285.0,Eminem,xxx,Self,triangle,1071.0,i,mismatch,True
sx9kmgaj4y,286.0,Eminem,xxx,Friend,carré,567.0,i,mismatch,True
sx9kmgaj4y,287.0,Eminem,xxx,Friend,triangle,553.0,i,mismatch,True
sx9kmgaj4y,288.0,Eminem,xxx,Self,triangle,725.0,i,mismatch,True
sx9kmgaj4y,289.0,Eminem,xxx,Friend,triangle,556.0,i,mismatch,True
sx9kmgaj4y,290.0,Eminem,xxx,Friend,triangle,396.0,i,mismatch,True
sx9kmgaj4y,291.0,Eminem,xxx,Stranger,triangle,710.0,e,match,True
sx9kmgaj4y,292.0,Eminem,xxx,Friend,triangle,639.0,i,mismatch,True
sx9kmgaj4y,293.0,Eminem,xxx,Friend,cercle,552.0,e,match,True
sx9kmgaj4y,294.0,Eminem,xxx,Friend,carré,506.0,i,mismatch,True
sx9kmgaj4y,295.0,Eminem,xxx,Friend,carré,458.0,i,mismatch,True
sx9kmgaj4y,296.0,Eminem,xxx,Friend,cercle,448.0,e,match,True
sx9kmgaj4y,297.0,Eminem,xxx,Stranger,carré,770.0,i,mismatch,True
sx9kmgaj4y,298.0,Eminem,xxx,Friend,cercle,754.0,e,match,True
sx9kmgaj4y,299.0,Eminem,xxx,Stranger,cercle,629.0,i,mismatch,True
sx9kmgaj4y,300.0,Eminem,xxx,Stranger,cercle,552.0,i,mismatch,True
sx9kmgaj4y,301.0,Eminem,xxx,Friend,cercle,646.0,e,match,True
sx9kmgaj4y,302.0,Eminem,xxx,Friend,triangle,648.0,i,mismatch,True
sx9kmgaj4y,303.0,Eminem,xxx,Friend,cercle,771.0,e,match,True
sx9kmgaj4y,304.0,Eminem,xxx,Friend,cercle,526.0,e,match,True
sx9kmgaj4y,305.0,Eminem,xxx,Self,triangle,648.0,i,mismatch,True
sx9kmgaj4y,306.0,Eminem,xxx,Friend,cercle,755.0,e,match,True
sx9kmgaj4y,307.0,Eminem,xxx,Friend,triangle,547.0,i,mismatch,True
sx9kmgaj4y,308.0,Eminem,xxx,Friend,carré,835.0,i,mismatch,True
sx9kmgaj4y,309.0,Eminem,xxx,Stranger,triangle,613.0,e,match,True
sx9kmgaj4y,310.0,Eminem,xxx,Self,triangle,588.0,i,mismatch,True
sx9kmgaj4y,311.0,Eminem,xxx,Self,cercle,696.0,i,mismatch,True
sx9kmgaj4y,312.0,Eminem,xxx,Stranger,carré,576.0,e,match,False
sx9kmgaj4y,313.0,Eminem,xxx,Friend,carré,823.0,i,mismatch,True
sx9kmgaj4y,314.0,Eminem,xxx,Stranger,triangle,700.0,e,match,True
sx9kmgaj4y,315.0,Eminem,xxx,Stranger,triangle,833.0,e,match,True
sx9kmgaj4y,316.0,Eminem,xxx,Friend,triangle,645.0,i,mismatch,True
sx9kmgaj4y,317.0,Eminem,xxx,Self,carré,588.0,e,match,True
sx9kmgaj4y,318.0,Eminem,xxx,Stranger,triangle,631.0,e,match,True
sx9kmgaj4y,319.0,Eminem,xxx,Friend,triangle,534.0,i,mismatch,True
sx9kmgaj4y,320.0,Eminem,xxx,Friend,triangle,810.0,i,mismatch,True
sx9kmgaj4y,321.0,Eminem,xxx,Self,carré,535.0,e,match,True
sx9kmgaj4y,322.0,Eminem,xxx,Stranger,carré,493.0,i,mismatch,True
sx9kmgaj4y,323.0,Eminem,xxx,Self,cercle,543.0,e,match,False
sx9kmgaj4y,324.0,Eminem,xxx,Friend,carré,430.0,e,match,False
ue57u9arlj,1.0,Rihanna,cris,Stranger,carré,708.0,e,mismatch,True
ue57u9arlj,2.0,Rihanna,cris,Friend,triangle,1144.0,i,match,True
ue57u9arlj,3.0,Rihanna,cris,Friend,triangle,712.0,i,match,True
ue57u9arlj,4.0,Rihanna,cris,Friend,triangle,704.0,i,match,True
ue57u9arlj,5.0,Rihanna,cris,Self,triangle,818.0,e,mismatch,True
ue57u9arlj,6.0,Rihanna,cris,Stranger,carré,965.0,e,mismatch,True
ue57u9arlj,7.0,Rihanna,cris,Friend,carré,897.0,e,mismatch,True
ue57u9arlj,8.0,Rihanna,cris,Self,cercle,719.0,e,mismatch,True
ue57u9arlj,9.0,Rihanna,cris,Stranger,triangle,1027.0,e,mismatch,True
ue57u9arlj,10.0,Rihanna,cris,Stranger,triangle,627.0,e,mismatch,True
ue57u9arlj,11.0,Rihanna,cris,Stranger,carré,1239.0,i,match,False
ue57u9arlj,12.0,Rihanna,cris,Self,triangle,749.0,e,mismatch,True
ue57u9arlj,13.0,Rihanna,cris,Stranger,carré,733.0,e,mismatch,True
ue57u9arlj,14.0,Rihanna,cris,Self,cercle,847.0,e,mismatch,True
ue57u9arlj,15.0,Rihanna,cris,Friend,carré,798.0,e,mismatch,True
ue57u9arlj,16.0,Rihanna,cris,Friend,triangle,555.0,e,mismatch,False
ue57u9arlj,17.0,Rihanna,cris,Stranger,carré,871.0,i,match,False
ue57u9arlj,18.0,Rihanna,cris,Friend,cercle,845.0,e,mismatch,True
ue57u9arlj,19.0,Rihanna,cris,Self,cercle,1014.0,e,mismatch,True
ue57u9arlj,20.0,Rihanna,cris,Self,carré,543.0,i,match,True
ue57u9arlj,21.0,Rihanna,cris,Self,carré,661.0,i,match,True
ue57u9arlj,22.0,Rihanna,cris,Stranger,carré,824.0,e,mismatch,True
ue57u9arlj,23.0,Rihanna,cris,Friend,carré,804.0,e,mismatch,True
ue57u9arlj,24.0,Rihanna,cris,Stranger,triangle,895.0,e,mismatch,True
ue57u9arlj,25.0,Rihanna,cris,Stranger,carré,709.0,e,mismatch,True
ue57u9arlj,26.0,Rihanna,cris,Self,triangle,905.0,i,match,False
ue57u9arlj,27.0,Rihanna,cris,Friend,carré,1117.0,e,mismatch,True
ue57u9arlj,28.0,Rihanna,cris,Self,triangle,666.0,i,match,False
ue57u9arlj,29.0,Rihanna,cris,Stranger,triangle,792.0,e,mismatch,True
ue57u9arlj,30.0,Rihanna,cris,Stranger,cercle,443.0,i,match,True
ue57u9arlj,31.0,Rihanna,cris,Friend,triangle,670.0,i,match,True
ue57u9arlj,32.0,Rihanna,cris,Friend,triangle,600.0,i,match,True
ue57u9arlj,33.0,Rihanna,cris,Stranger,triangle,720.0,e,mismatch,True
ue57u9arlj,34.0,Rihanna,cris,Friend,carré,650.0,i,match,False
ue57u9arlj,35.0,Rihanna,cris,Stranger,cercle,581.0,i,match,True
ue57u9arlj,36.0,Rihanna,cris,Self,triangle,639.0,i,match,False
ue57u9arlj,37.0,Rihanna,cris,Friend,cercle,1042.0,e,mismatch,True
ue57u9arlj,38.0,Rihanna,cris,Stranger,triangle,934.0,e,mismatch,True
ue57u9arlj,39.0,Rihanna,cris,Self,carré,861.0,e,mismatch,False
ue57u9arlj,40.0,Rihanna,cris,Friend,triangle,673.0,i,match,True
ue57u9arlj,41.0,Rihanna,cris,Stranger,carré,716.0,e,mismatch,True
ue57u9arlj,42.0,Rihanna,cris,Friend,cercle,571.0,i,match,False
ue57u9arlj,43.0,Rihanna,cris,Self,cercle,841.0,e,mismatch,True
ue57u9arlj,44.0,Rihanna,cris,Self,triangle,800.0,e,mismatch,True
ue57u9arlj,45.0,Rihanna,cris,Self,cercle,566.0,e,mismatch,True
ue57u9arlj,46.0,Rihanna,cris,Friend,cercle,440.0,e,mismatch,True
ue57u9arlj,47.0,Rihanna,cris,Friend,carré,590.0,i,match,False
ue57u9arlj,48.0,Rihanna,cris,Self,cercle,671.0,e,mismatch,True
ue57u9arlj,49.0,Rihanna,cris,Stranger,cercle,445.0,e,mismatch,False
ue57u9arlj,50.0,Rihanna,cris,Self,cercle,478.0,e,mismatch,True
ue57u9arlj,51.0,Rihanna,cris,Friend,carré,364.0,i,match,False
ue57u9arlj,52.0,Rihanna,cris,Stranger,cercle,478.0,e,mismatch,False
ue57u9arlj,53.0,Rihanna,cris,Stranger,cercle,389.0,i,match,True
ue57u9arlj,54.0,Rihanna,cris,Stranger,triangle,375.0,i,match,False
ue57u9arlj,55.0,Rihanna,cris,Self,cercle,233.0,e,mismatch,True
ue57u9arlj,56.0,Rihanna,cris,Stranger,triangle,349.0,e,mismatch,True
ue57u9arlj,57.0,Rihanna,cris,Friend,carré,210.0,i,match,False
ue57u9arlj,58.0,Rihanna,cris,Stranger,cercle,123.0,e,mismatch,False
ue57u9arlj,59.0,Rihanna,cris,Stranger,carré,243.0,i,match,False
ue57u9arlj,60.0,Rihanna,cris,Stranger,cercle,154.0,e,mismatch,False
ue57u9arlj,61.0,Rihanna,cris,Self,triangle,57.0,i,match,False
ue57u9arlj,62.0,Rihanna,cris,Friend,carré,64.0,e,mismatch,True
ue57u9arlj,63.0,Rihanna,cris,Stranger,triangle,138.0,e,mismatch,True
ue57u9arlj,64.0,Rihanna,cris,Friend,cercle,155.0,e,mismatch,True
ue57u9arlj,65.0,Rihanna,cris,Friend,triangle,54.0,e,mismatch,False
ue57u9arlj,66.0,Rihanna,cris,Stranger,triangle,58.0,i,match,False
ue57u9arlj,67.0,Rihanna,cris,Self,cercle,511.0,e,mismatch,True
ue57u9arlj,68.0,Rihanna,cris,Friend,carré,591.0,e,mismatch,True
ue57u9arlj,69.0,Rihanna,cris,Stranger,carré,562.0,e,mismatch,True
ue57u9arlj,70.0,Rihanna,cris,Friend,carré,828.0,e,mismatch,True
ue57u9arlj,71.0,Rihanna,cris,Self,carré,518.0,i,match,True
ue57u9arlj,72.0,Rihanna,cris,Friend,carré,440.0,e,mismatch,True
ue57u9arlj,73.0,Rihanna,cris,Stranger,triangle,449.0,e,mismatch,True
ue57u9arlj,74.0,Rihanna,cris,Friend,carré,1143.0,i,match,False
ue57u9arlj,75.0,Rihanna,cris,Self,carré,230.0,i,match,True
ue57u9arlj,76.0,Rihanna,cris,Self,triangle,,,,False
ue57u9arlj,77.0,Rihanna,cris,Friend,cercle,,,,False
ue57u9arlj,78.0,Rihanna,cris,Stranger,triangle,473.0,e,mismatch,True
ue57u9arlj,79.0,Rihanna,cris,Self,triangle,783.0,i,match,False
ue57u9arlj,80.0,Rihanna,cris,Friend,triangle,753.0,i,match,True
ue57u9arlj,81.0,Rihanna,cris,Self,triangle,603.0,e,mismatch,True
ue57u9arlj,82.0,Rihanna,cris,Stranger,carré,633.0,e,mismatch,True
ue57u9arlj,83.0,Rihanna,cris,Friend,carré,794.0,i,match,False
ue57u9arlj,84.0,Rihanna,cris,Friend,carré,557.0,e,mismatch,True
ue57u9arlj,85.0,Rihanna,cris,Self,carré,514.0,e,mismatch,False
ue57u9arlj,86.0,Rihanna,cris,Friend,cercle,1197.0,i,match,False
ue57u9arlj,87.0,Rihanna,cris,Stranger,carré,1095.0,e,mismatch,True
ue57u9arlj,88.0,Rihanna,cris,Stranger,carré,538.0,e,mismatch,True
ue57u9arlj,89.0,Rihanna,cris,Stranger,carré,455.0,e,mismatch,True
ue57u9arlj,90.0,Rihanna,cris,Self,carré,611.0,i,match,True
ue57u9arlj,91.0,Rihanna,cris,Friend,carré,685.0,e,mismatch,True
ue57u9arlj,92.0,Rihanna,cris,Stranger,carré,466.0,e,mismatch,True
ue57u9arlj,93.0,Rihanna,cris,Stranger,triangle,678.0,i,match,False
ue57u9arlj,94.0,Rihanna,cris,Stranger,cercle,544.0,i,match,True
ue57u9arlj,95.0,Rihanna,cris,Friend,triangle,758.0,i,match,True
ue57u9arlj,96.0,Rihanna,cris,Self,cercle,639.0,e,mismatch,True
ue57u9arlj,97.0,Rihanna,cris,Self,carré,463.0,i,match,True
ue57u9arlj,98.0,Rihanna,cris,Self,carré,492.0,i,match,True
ue57u9arlj,99.0,Rihanna,cris,Stranger,triangle,583.0,e,mismatch,True
ue57u9arlj,100.0,Rihanna,cris,Stranger,carré,580.0,e,mismatch,True
ue57u9arlj,101.0,Rihanna,cris,Friend,cercle,804.0,e,mismatch,True
ue57u9arlj,102.0,Rihanna,cris,Self,cercle,829.0,e,mismatch,True
ue57u9arlj,103.0,Rihanna,cris,Stranger,cercle,582.0,e,mismatch,False
ue57u9arlj,104.0,Rihanna,cris,Self,triangle,712.0,e,mismatch,True
ue57u9arlj,105.0,Rihanna,cris,Self,carré,554.0,i,match,True
ue57u9arlj,106.0,Rihanna,cris,Friend,carré,546.0,e,mismatch,True
ue57u9arlj,107.0,Rihanna,cris,Friend,triangle,510.0,i,match,True
ue57u9arlj,108.0,Rihanna,cris,Stranger,triangle,443.0,e,mismatch,True
ue57u9arlj,109.0,Rihanna,cris,Stranger,cercle,1022.0,e,mismatch,False
ue57u9arlj,110.0,Rihanna,cris,Stranger,cercle,517.0,i,match,True
ue57u9arlj,111.0,Rihanna,cris,Self,triangle,913.0,e,mismatch,True
ue57u9arlj,112.0,Rihanna,cris,Self,carré,639.0,i,match,True
ue57u9arlj,113.0,Rihanna,cris,Stranger,triangle,575.0,e,mismatch,True
ue57u9arlj,114.0,Rihanna,cris,Friend,cercle,573.0,e,mismatch,True
ue57u9arlj,115.0,Rihanna,cris,Friend,cercle,576.0,e,mismatch,True
ue57u9arlj,116.0,Rihanna,cris,Stranger,carré,930.0,i,match,False
ue57u9arlj,117.0,Rihanna,cris,Friend,triangle,900.0,e,mismatch,False
ue57u9arlj,118.0,Rihanna,cris,Stranger,triangle,871.0,i,match,False
ue57u9arlj,119.0,Rihanna,cris,Self,carré,636.0,e,mismatch,False
ue57u9arlj,120.0,Rihanna,cris,Friend,cercle,956.0,e,mismatch,True
ue57u9arlj,121.0,Rihanna,cris,Friend,cercle,607.0,e,mismatch,True
ue57u9arlj,122.0,Rihanna,cris,Self,cercle,982.0,i,match,False
ue57u9arlj,123.0,Rihanna,cris,Self,triangle,995.0,i,match,False
ue57u9arlj,124.0,Rihanna,cris,Self,cercle,727.0,e,mismatch,True
ue57u9arlj,125.0,Rihanna,cris,Self,cercle,535.0,e,mismatch,True
ue57u9arlj,126.0,Rihanna,cris,Self,carré,506.0,i,match,True
ue57u9arlj,127.0,Rihanna,cris,Stranger,cercle,524.0,e,mismatch,False
ue57u9arlj,128.0,Rihanna,cris,Stranger,carré,622.0,e,mismatch,True
ue57u9arlj,129.0,Rihanna,cris,Friend,cercle,1020.0,e,mismatch,True
ue57u9arlj,130.0,Rihanna,cris,Stranger,carré,1116.0,e,mismatch,True
ue57u9arlj,131.0,Rihanna,cris,Self,triangle,908.0,e,mismatch,True
ue57u9arlj,132.0,Rihanna,cris,Friend,carré,678.0,e,mismatch,True
ue57u9arlj,133.0,Rihanna,cris,Friend,cercle,951.0,i,match,False
ue57u9arlj,134.0,Rihanna,cris,Self,cercle,821.0,i,match,False
ue57u9arlj,135.0,Rihanna,cris,Friend,triangle,1010.0,i,match,True
ue57u9arlj,136.0,Rihanna,cris,Self,carré,595.0,i,match,True
ue57u9arlj,137.0,Rihanna,cris,Friend,carré,653.0,i,match,False
ue57u9arlj,138.0,Rihanna,cris,Friend,carré,570.0,e,mismatch,True
ue57u9arlj,139.0,Rihanna,cris,Self,cercle,748.0,i,match,False
ue57u9arlj,140.0,Rihanna,cris,Stranger,triangle,532.0,e,mismatch,True
ue57u9arlj,141.0,Rihanna,cris,Friend,carré,854.0,e,mismatch,True
ue57u9arlj,142.0,Rihanna,cris,Self,triangle,731.0,e,mismatch,True
ue57u9arlj,143.0,Rihanna,cris,Stranger,carré,957.0,i,match,False
ue57u9arlj,144.0,Rihanna,cris,Friend,cercle,821.0,i,match,False
ue57u9arlj,145.0,Rihanna,cris,Self,carré,806.0,i,match,True
ue57u9arlj,146.0,Rihanna,cris,Self,cercle,1165.0,e,mismatch,True
ue57u9arlj,147.0,Rihanna,cris,Self,carré,759.0,i,match,True
ue57u9arlj,148.0,Rihanna,cris,Stranger,carré,661.0,e,mismatch,True
ue57u9arlj,149.0,Rihanna,cris,Stranger,cercle,708.0,e,mismatch,False
ue57u9arlj,150.0,Rihanna,cris,Self,carré,699.0,i,match,True
ue57u9arlj,151.0,Rihanna,cris,Friend,triangle,726.0,i,match,True
ue57u9arlj,152.0,Rihanna,cris,Self,cercle,919.0,e,mismatch,True
ue57u9arlj,153.0,Rihanna,cris,Self,triangle,682.0,e,mismatch,True
ue57u9arlj,154.0,Rihanna,cris,Self,cercle,701.0,e,mismatch,True
ue57u9arlj,155.0,Rihanna,cris,Friend,cercle,489.0,e,mismatch,True
ue57u9arlj,156.0,Rihanna,cris,Stranger,triangle,828.0,e,mismatch,True
ue57u9arlj,157.0,Rihanna,cris,Self,cercle,767.0,e,mismatch,True
ue57u9arlj,158.0,Rihanna,cris,Self,triangle,620.0,e,mismatch,True
ue57u9arlj,159.0,Rihanna,cris,Friend,triangle,852.0,i,match,True
ue57u9arlj,160.0,Rihanna,cris,Stranger,carré,745.0,i,match,False
ue57u9arlj,161.0,Rihanna,cris,Stranger,cercle,621.0,i,match,True
ue57u9arlj,162.0,Rihanna,cris,Self,carré,599.0,i,match,True
ue57u9arlj,163.0,Rihanna,cris,Self,cercle,652.0,e,mismatch,True
ue57u9arlj,164.0,Rihanna,cris,Stranger,cercle,830.0,i,match,True
ue57u9arlj,165.0,Rihanna,cris,Stranger,carré,757.0,e,mismatch,True
ue57u9arlj,166.0,Rihanna,cris,Stranger,triangle,873.0,e,mismatch,True
ue57u9arlj,167.0,Rihanna,cris,Self,carré,607.0,i,match,True
ue57u9arlj,168.0,Rihanna,cris,Stranger,triangle,841.0,e,mismatch,True
ue57u9arlj,169.0,Rihanna,cris,Self,triangle,560.0,e,mismatch,True
ue57u9arlj,170.0,Rihanna,cris,Friend,cercle,806.0,e,mismatch,True
ue57u9arlj,171.0,Rihanna,cris,Self,cercle,575.0,e,mismatch,True
ue57u9arlj,172.0,Rihanna,cris,Stranger,carré,996.0,e,mismatch,True
ue57u9arlj,173.0,Rihanna,cris,Self,cercle,575.0,e,mismatch,True
ue57u9arlj,174.0,Rihanna,cris,Stranger,triangle,546.0,e,mismatch,True
ue57u9arlj,175.0,Rihanna,cris,Friend,carré,642.0,e,mismatch,True
ue57u9arlj,176.0,Rihanna,cris,Self,carré,664.0,i,match,True
ue57u9arlj,177.0,Rihanna,cris,Self,triangle,618.0,e,mismatch,True
ue57u9arlj,178.0,Rihanna,cris,Stranger,carré,687.0,e,mismatch,True
ue57u9arlj,179.0,Rihanna,cris,Friend,carré,644.0,e,mismatch,True
ue57u9arlj,180.0,Rihanna,cris,Self,cercle,567.0,i,match,False
ue57u9arlj,181.0,Rihanna,cris,Friend,cercle,,,,False
ue57u9arlj,182.0,Rihanna,cris,Stranger,cercle,,,,False
ue57u9arlj,183.0,Rihanna,cris,Stranger,triangle,,,,False
ue57u9arlj,184.0,Rihanna,cris,Friend,cercle,,,,False
ue57u9arlj,185.0,Rihanna,cris,Self,triangle,344.0,i,match,False
ue57u9arlj,186.0,Rihanna,cris,Stranger,cercle,297.0,e,mismatch,False
ue57u9arlj,187.0,Rihanna,cris,Friend,triangle,431.0,i,match,True
ue57u9arlj,188.0,Rihanna,cris,Stranger,cercle,361.0,i,match,True
ue57u9arlj,189.0,Rihanna,cris,Stranger,cercle,530.0,i,match,True
ue57u9arlj,190.0,Rihanna,cris,Friend,carré,795.0,i,match,False
ue57u9arlj,191.0,Rihanna,cris,Friend,triangle,785.0,i,match,True
ue57u9arlj,192.0,Rihanna,cris,Stranger,cercle,871.0,i,match,True
ue57u9arlj,193.0,Rihanna,cris,Friend,cercle,689.0,e,mismatch,True
ue57u9arlj,194.0,Rihanna,cris,Stranger,cercle,871.0,i,match,True
ue57u9arlj,195.0,Rihanna,cris,Self,carré,678.0,i,match,True
ue57u9arlj,196.0,Rihanna,cris,Friend,carré,591.0,e,mismatch,True
ue57u9arlj,197.0,Rihanna,cris,Self,carré,589.0,i,match,True
ue57u9arlj,198.0,Rihanna,cris,Stranger,cercle,827.0,i,match,True
ue57u9arlj,199.0,Rihanna,cris,Friend,triangle,485.0,i,match,True
ue57u9arlj,200.0,Rihanna,cris,Self,triangle,646.0,e,mismatch,True
ue57u9arlj,201.0,Rihanna,cris,Friend,cercle,1039.0,i,match,False
ue57u9arlj,202.0,Rihanna,cris,Self,triangle,243.0,i,match,False
ue57u9arlj,203.0,Rihanna,cris,Stranger,triangle,300.0,e,mismatch,True
ue57u9arlj,204.0,Rihanna,cris,Stranger,carré,647.0,i,match,False
ue57u9arlj,205.0,Rihanna,cris,Friend,cercle,614.0,e,mismatch,True
ue57u9arlj,206.0,Rihanna,cris,Self,triangle,586.0,e,mismatch,True
ue57u9arlj,207.0,Rihanna,cris,Stranger,cercle,870.0,i,match,True
ue57u9arlj,208.0,Rihanna,cris,Friend,triangle,840.0,i,match,True
ue57u9arlj,209.0,Rihanna,cris,Friend,triangle,667.0,i,match,True
ue57u9arlj,210.0,Rihanna,cris,Stranger,cercle,544.0,e,mismatch,False
ue57u9arlj,211.0,Rihanna,cris,Stranger,cercle,530.0,i,match,True
ue57u9arlj,212.0,Rihanna,cris,Friend,carré,914.0,e,mismatch,True
ue57u9arlj,213.0,Rihanna,cris,Self,cercle,1027.0,e,mismatch,True
ue57u9arlj,214.0,Rihanna,cris,Friend,triangle,1488.0,e,mismatch,False
ue57u9arlj,215.0,Rihanna,cris,Self,carré,823.0,i,match,True
ue57u9arlj,216.0,Rihanna,cris,Stranger,triangle,831.0,e,mismatch,True
ue57u9arlj,217.0,Rihanna,cris,Stranger,carré,652.0,e,mismatch,True
ue57u9arlj,218.0,Rihanna,cris,Self,carré,652.0,i,match,True
ue57u9arlj,219.0,Rihanna,cris,Self,cercle,556.0,e,mismatch,True
ue57u9arlj,220.0,Rihanna,cris,Friend,cercle,679.0,e,mismatch,True
ue57u9arlj,221.0,Rihanna,cris,Stranger,triangle,727.0,e,mismatch,True
ue57u9arlj,222.0,Rihanna,cris,Self,carré,685.0,i,match,True
ue57u9arlj,223.0,Rihanna,cris,Stranger,carré,1001.0,e,mismatch,True
ue57u9arlj,224.0,Rihanna,cris,Self,cercle,667.0,e,mismatch,True
ue57u9arlj,225.0,Rihanna,cris,Friend,carré,646.0,i,match,False
ue57u9arlj,226.0,Rihanna,cris,Self,carré,552.0,i,match,True
ue57u9arlj,227.0,Rihanna,cris,Self,cercle,562.0,e,mismatch,True
ue57u9arlj,228.0,Rihanna,cris,Friend,carré,686.0,e,mismatch,True
ue57u9arlj,229.0,Rihanna,cris,Stranger,cercle,524.0,e,mismatch,False
ue57u9arlj,230.0,Rihanna,cris,Stranger,carré,588.0,e,mismatch,True
ue57u9arlj,231.0,Rihanna,cris,Stranger,carré,774.0,i,match,False
ue57u9arlj,232.0,Rihanna,cris,Self,carré,731.0,i,match,True
ue57u9arlj,233.0,Rihanna,cris,Stranger,cercle,1178.0,e,mismatch,False
ue57u9arlj,234.0,Rihanna,cris,Self,carré,501.0,i,match,True
ue57u9arlj,235.0,Rihanna,cris,Self,triangle,478.0,e,mismatch,True
ue57u9arlj,236.0,Rihanna,cris,Self,triangle,445.0,e,mismatch,True
ue57u9arlj,237.0,Rihanna,cris,Stranger,triangle,615.0,i,match,False
ue57u9arlj,238.0,Rihanna,cris,Self,cercle,570.0,e,mismatch,True
ue57u9arlj,239.0,Rihanna,cris,Friend,triangle,503.0,e,mismatch,False
ue57u9arlj,240.0,Rihanna,cris,Self,carré,334.0,e,mismatch,False
ue57u9arlj,241.0,Rihanna,cris,Friend,cercle,439.0,e,mismatch,True
ue57u9arlj,242.0,Rihanna,cris,Stranger,cercle,719.0,i,match,True
ue57u9arlj,243.0,Rihanna,cris,Stranger,carré,1097.0,i,match,False
ue57u9arlj,244.0,Rihanna,cris,Stranger,triangle,626.0,e,mismatch,True
ue57u9arlj,245.0,Rihanna,cris,Stranger,cercle,423.0,i,match,True
ue57u9arlj,246.0,Rihanna,cris,Friend,cercle,510.0,e,mismatch,True
ue57u9arlj,247.0,Rihanna,cris,Self,carré,586.0,i,match,True
ue57u9arlj,248.0,Rihanna,cris,Self,triangle,496.0,e,mismatch,True
ue57u9arlj,249.0,Rihanna,cris,Self,cercle,547.0,e,mismatch,True
ue57u9arlj,250.0,Rihanna,cris,Self,triangle,541.0,e,mismatch,True
ue57u9arlj,251.0,Rihanna,cris,Self,cercle,534.0,e,mismatch,True
ue57u9arlj,252.0,Rihanna,cris,Self,cercle,433.0,e,mismatch,True
ue57u9arlj,253.0,Rihanna,cris,Friend,cercle,490.0,e,mismatch,True
ue57u9arlj,254.0,Rihanna,cris,Self,carré,658.0,i,match,True
ue57u9arlj,255.0,Rihanna,cris,Self,cercle,583.0,e,mismatch,True
ue57u9arlj,256.0,Rihanna,cris,Stranger,carré,751.0,i,match,False
ue57u9arlj,257.0,Rihanna,cris,Friend,triangle,800.0,e,mismatch,False
ue57u9arlj,258.0,Rihanna,cris,Stranger,cercle,793.0,i,match,True
ue57u9arlj,259.0,Rihanna,cris,Self,carré,745.0,i,match,True
ue57u9arlj,260.0,Rihanna,cris,Self,triangle,978.0,e,mismatch,True
ue57u9arlj,261.0,Rihanna,cris,Friend,triangle,705.0,i,match,True
ue57u9arlj,262.0,Rihanna,cris,Stranger,cercle,764.0,i,match,True
ue57u9arlj,263.0,Rihanna,cris,Stranger,cercle,469.0,i,match,True
ue57u9arlj,264.0,Rihanna,cris,Stranger,cercle,393.0,i,match,True
ue57u9arlj,265.0,Rihanna,cris,Stranger,triangle,524.0,e,mismatch,True
ue57u9arlj,266.0,Rihanna,cris,Friend,cercle,778.0,e,mismatch,True
ue57u9arlj,267.0,Rihanna,cris,Friend,cercle,569.0,e,mismatch,True
ue57u9arlj,268.0,Rihanna,cris,Self,triangle,768.0,e,mismatch,True
ue57u9arlj,269.0,Rihanna,cris,Friend,triangle,491.0,e,mismatch,False
ue57u9arlj,270.0,Rihanna,cris,Friend,triangle,625.0,i,match,True
ue57u9arlj,271.0,Rihanna,cris,Friend,cercle,592.0,e,mismatch,True
ue57u9arlj,272.0,Rihanna,cris,Stranger,triangle,840.0,e,mismatch,True
ue57u9arlj,273.0,Rihanna,cris,Friend,cercle,607.0,e,mismatch,True
ue57u9arlj,274.0,Rihanna,cris,Friend,triangle,695.0,e,mismatch,False
ue57u9arlj,275.0,Rihanna,cris,Self,triangle,563.0,i,match,False
ue57u9arlj,276.0,Rihanna,cris,Friend,triangle,410.0,i,match,True
ue57u9arlj,277.0,Rihanna,cris,Friend,carré,613.0,e,mismatch,True
ue57u9arlj,278.0,Rihanna,cris,Friend,triangle,439.0,e,mismatch,False
ue57u9arlj,279.0,Rihanna,cris,Stranger,triangle,118.0,i,match,False
ue57u9arlj,280.0,Rihanna,cris,Stranger,triangle,193.0,e,mismatch,True
ue57u9arlj,281.0,Rihanna,cris,Self,triangle,404.0,e,mismatch,True
ue57u9arlj,282.0,Rihanna,cris,Self,triangle,1102.0,e,mismatch,True
ue57u9arlj,283.0,Rihanna,cris,Self,carré,628.0,e,mismatch,False
ue57u9arlj,284.0,Rihanna,cris,Stranger,triangle,494.0,e,mismatch,True
ue57u9arlj,285.0,Rihanna,cris,Self,triangle,564.0,i,match,False
ue57u9arlj,286.0,Rihanna,cris,Self,carré,600.0,i,match,True
ue57u9arlj,287.0,Rihanna,cris,Stranger,carré,545.0,e,mismatch,True
ue57u9arlj,288.0,Rihanna,cris,Friend,triangle,559.0,e,mismatch,False
ue57u9arlj,289.0,Rihanna,cris,Self,triangle,594.0,i,match,False
ue57u9arlj,290.0,Rihanna,cris,Friend,carré,657.0,e,mismatch,True
ue57u9arlj,291.0,Rihanna,cris,Friend,triangle,307.0,e,mismatch,False
ue57u9arlj,292.0,Rihanna,cris,Friend,triangle,703.0,e,mismatch,False
ue57u9arlj,293.0,Rihanna,cris,Self,triangle,446.0,e,mismatch,True
ue57u9arlj,294.0,Rihanna,cris,Stranger,cercle,746.0,i,match,True
ue57u9arlj,295.0,Rihanna,cris,Friend,cercle,637.0,e,mismatch,True
ue57u9arlj,296.0,Rihanna,cris,Friend,triangle,526.0,e,mismatch,False
ue57u9arlj,297.0,Rihanna,cris,Friend,cercle,492.0,e,mismatch,True
ue57u9arlj,298.0,Rihanna,cris,Friend,carré,626.0,e,mismatch,True
ue57u9arlj,299.0,Rihanna,cris,Friend,cercle,739.0,e,mismatch,True
ue57u9arlj,300.0,Rihanna,cris,Stranger,carré,642.0,e,mismatch,True
ue57u9arlj,301.0,Rihanna,cris,Friend,triangle,477.0,e,mismatch,False
ue57u9arlj,302.0,Rihanna,cris,Stranger,triangle,252.0,i,match,False
ue57u9arlj,303.0,Rihanna,cris,Stranger,triangle,541.0,e,mismatch,True
ue57u9arlj,304.0,Rihanna,cris,Stranger,carré,670.0,i,match,False
ue57u9arlj,305.0,Rihanna,cris,Stranger,carré,572.0,i,match,False
ue57u9arlj,306.0,Rihanna,cris,Friend,cercle,621.0,e,mismatch,True
ue57u9arlj,307.0,Rihanna,cris,Stranger,triangle,529.0,i,match,False
ue57u9arlj,308.0,Rihanna,cris,Self,triangle,764.0,e,mismatch,True
ue57u9arlj,309.0,Rihanna,cris,Stranger,cercle,783.0,i,match,True
ue57u9arlj,310.0,Rihanna,cris,Friend,triangle,523.0,e,mismatch,False
ue57u9arlj,311.0,Rihanna,cris,Self,cercle,935.0,i,match,False
ue57u9arlj,312.0,Rihanna,cris,Stranger,cercle,378.0,e,mismatch,False
ue57u9arlj,313.0,Rihanna,cris,Friend,carré,740.0,e,mismatch,True
ue57u9arlj,314.0,Rihanna,cris,Friend,carré,488.0,e,mismatch,True
ue57u9arlj,315.0,Rihanna,cris,Friend,carré,435.0,e,mismatch,True
ue57u9arlj,316.0,Rihanna,cris,Self,cercle,759.0,e,mismatch,True
ue57u9arlj,317.0,Rihanna,cris,Self,carré,623.0,i,match,True
ue57u9arlj,318.0,Rihanna,cris,Friend,cercle,529.0,e,mismatch,True
ue57u9arlj,319.0,Rihanna,cris,Self,cercle,622.0,e,mismatch,True
ue57u9arlj,320.0,Rihanna,cris,Friend,cercle,466.0,e,mismatch,True
ue57u9arlj,321.0,Rihanna,cris,Friend,carré,718.0,e,mismatch,True
ue57u9arlj,322.0,Rihanna,cris,Friend,triangle,465.0,e,mismatch,False
ue57u9arlj,323.0,Rihanna,cris,Friend,carré,319.0,e,mismatch,True
ue57u9arlj,324.0,Rihanna,cris,Self,carré,722.0,i,match,True
9buso7t050,1.0,Shakira,xxx,Friend,circle,1404.0,i,mismatch,False
9buso7t050,2.0,Shakira,xxx,Self,circle,1272.0,i,mismatch,True
9buso7t050,3.0,Shakira,xxx,Friend,circle,688.0,i,mismatch,False
9buso7t050,4.0,Shakira,xxx,Stranger,square,1257.0,i,mismatch,True
9buso7t050,5.0,Shakira,xxx,Friend,circle,1153.0,i,mismatch,False
9buso7t050,6.0,Shakira,xxx,Self,triangle,977.0,i,mismatch,True
9buso7t050,7.0,Shakira,xxx,Friend,triangle,672.0,i,mismatch,True
9buso7t050,8.0,Shakira,xxx,Friend,triangle,727.0,i,mismatch,True
9buso7t050,9.0,Shakira,xxx,Stranger,circle,1394.0,i,mismatch,True
9buso7t050,10.0,Shakira,xxx,Self,square,1313.0,e,match,True
9buso7t050,11.0,Shakira,xxx,Self,circle,824.0,i,mismatch,True
9buso7t050,12.0,Shakira,xxx,Stranger,square,818.0,i,mismatch,True
9buso7t050,13.0,Shakira,xxx,Stranger,square,1380.0,i,mismatch,True
9buso7t050,14.0,Shakira,xxx,Stranger,square,515.0,i,mismatch,True
9buso7t050,15.0,Shakira,xxx,Stranger,square,460.0,i,mismatch,True
9buso7t050,16.0,Shakira,xxx,Stranger,square,398.0,i,mismatch,True
9buso7t050,17.0,Shakira,xxx,Stranger,square,559.0,i,mismatch,True
9buso7t050,18.0,Shakira,xxx,Stranger,triangle,1116.0,e,match,True
9buso7t050,19.0,Shakira,xxx,Self,triangle,628.0,i,mismatch,True
9buso7t050,20.0,Shakira,xxx,Self,triangle,659.0,i,mismatch,True
9buso7t050,21.0,Shakira,xxx,Self,triangle,671.0,i,mismatch,True
9buso7t050,22.0,Shakira,xxx,Stranger,circle,1120.0,i,mismatch,True
9buso7t050,23.0,Shakira,xxx,Self,square,926.0,i,mismatch,False
9buso7t050,24.0,Shakira,xxx,Friend,triangle,1064.0,i,mismatch,True
9buso7t050,25.0,Shakira,xxx,Self,triangle,1080.0,i,mismatch,True
9buso7t050,26.0,Shakira,xxx,Self,square,927.0,e,match,True
9buso7t050,27.0,Shakira,xxx,Friend,square,656.0,i,mismatch,True
9buso7t050,28.0,Shakira,xxx,Self,circle,1213.0,i,mismatch,True
9buso7t050,29.0,Shakira,xxx,Stranger,square,1131.0,i,mismatch,True
9buso7t050,30.0,Shakira,xxx,Self,circle,1102.0,i,mismatch,True
9buso7t050,31.0,Shakira,xxx,Stranger,triangle,786.0,i,mismatch,False
9buso7t050,32.0,Shakira,xxx,Stranger,square,1254.0,e,match,False
9buso7t050,33.0,Shakira,xxx,Self,square,654.0,i,mismatch,False
9buso7t050,34.0,Shakira,xxx,Friend,circle,459.0,e,match,True
9buso7t050,35.0,Shakira,xxx,Friend,circle,673.0,i,mismatch,False
9buso7t050,36.0,Shakira,xxx,Self,square,516.0,e,match,True
9buso7t050,37.0,Shakira,xxx,Friend,circle,500.0,e,match,True
9buso7t050,38.0,Shakira,xxx,Friend,circle,566.0,e,match,True
9buso7t050,39.0,Shakira,xxx,Stranger,circle,1264.0,i,mismatch,True
9buso7t050,40.0,Shakira,xxx,Self,triangle,886.0,e,match,False
9buso7t050,41.0,Shakira,xxx,Self,triangle,619.0,i,mismatch,True
9buso7t050,42.0,Shakira,xxx,Self,square,672.0,e,match,True
9buso7t050,43.0,Shakira,xxx,Self,triangle,752.0,i,mismatch,True
9buso7t050,44.0,Shakira,xxx,Stranger,triangle,599.0,i,mismatch,False
9buso7t050,45.0,Shakira,xxx,Friend,circle,741.0,e,match,True
9buso7t050,46.0,Shakira,xxx,Friend,triangle,708.0,i,mismatch,True
9buso7t050,47.0,Shakira,xxx,Self,square,820.0,i,mismatch,False
9buso7t050,48.0,Shakira,xxx,Stranger,square,1291.0,i,mismatch,True
9buso7t050,49.0,Shakira,xxx,Friend,triangle,2123.0,i,mismatch,True
9buso7t050,50.0,Shakira,xxx,Self,circle,949.0,i,mismatch,True
9buso7t050,51.0,Shakira,xxx,Friend,triangle,1205.0,i,mismatch,True
9buso7t050,52.0,Shakira,xxx,Friend,square,1637.0,i,mismatch,True
9buso7t050,53.0,Shakira,xxx,Friend,square,1337.0,i,mismatch,True
9buso7t050,54.0,Shakira,xxx,Stranger,triangle,1082.0,e,match,True
9buso7t050,55.0,Shakira,xxx,Self,triangle,962.0,i,mismatch,True
9buso7t050,56.0,Shakira,xxx,Self,triangle,650.0,i,mismatch,True
9buso7t050,57.0,Shakira,xxx,Friend,square,1083.0,i,mismatch,True
9buso7t050,58.0,Shakira,xxx,Friend,triangle,791.0,i,mismatch,True
9buso7t050,59.0,Shakira,xxx,Friend,triangle,554.0,i,mismatch,True
9buso7t050,60.0,Shakira,xxx,Friend,triangle,474.0,i,mismatch,True
9buso7t050,61.0,Shakira,xxx,Friend,triangle,423.0,i,mismatch,True
9buso7t050,62.0,Shakira,xxx,Stranger,square,1084.0,e,match,False
9buso7t050,63.0,Shakira,xxx,Stranger,triangle,854.0,e,match,True
9buso7t050,64.0,Shakira,xxx,Self,square,559.0,e,match,True
9buso7t050,65.0,Shakira,xxx,Stranger,triangle,858.0,i,mismatch,False
9buso7t050,66.0,Shakira,xxx,Friend,circle,1047.0,e,match,True
9buso7t050,67.0,Shakira,xxx,Self,triangle,1245.0,e,match,False
9buso7t050,68.0,Shakira,xxx,Friend,triangle,1176.0,i,mismatch,True
9buso7t050,69.0,Shakira,xxx,Friend,triangle,723.0,i,mismatch,True
9buso7t050,70.0,Shakira,xxx,Self,square,1181.0,i,mismatch,False
9buso7t050,71.0,Shakira,xxx,Self,circle,1425.0,i,mismatch,True
9buso7t050,72.0,Shakira,xxx,Friend,circle,968.0,e,match,True
9buso7t050,73.0,Shakira,xxx,Stranger,square,926.0,e,match,False
9buso7t050,74.0,Shakira,xxx,Friend,circle,724.0,i,mismatch,False
9buso7t050,75.0,Shakira,xxx,Friend,square,820.0,i,mismatch,True
9buso7t050,76.0,Shakira,xxx,Self,triangle,864.0,e,match,False
9buso7t050,77.0,Shakira,xxx,Friend,square,868.0,i,mismatch,True
9buso7t050,78.0,Shakira,xxx,Stranger,square,897.0,e,match,False
9buso7t050,79.0,Shakira,xxx,Friend,circle,882.0,i,mismatch,False
9buso7t050,80.0,Shakira,xxx,Stranger,triangle,1112.0,i,mismatch,False
9buso7t050,81.0,Shakira,xxx,Friend,circle,881.0,e,match,True
9buso7t050,82.0,Shakira,xxx,Stranger,circle,975.0,i,mismatch,True
9buso7t050,83.0,Shakira,xxx,Self,circle,1545.0,i,mismatch,True
9buso7t050,84.0,Shakira,xxx,Friend,square,718.0,i,mismatch,True
9buso7t050,85.0,Shakira,xxx,Stranger,triangle,1056.0,i,mismatch,False
9buso7t050,86.0,Shakira,xxx,Stranger,square,953.0,i,mismatch,True
9buso7t050,87.0,Shakira,xxx,Friend,square,845.0,i,mismatch,True
9buso7t050,88.0,Shakira,xxx,Friend,square,699.0,i,mismatch,True
9buso7t050,89.0,Shakira,xxx,Self,triangle,817.0,e,match,False
9buso7t050,90.0,Shakira,xxx,Self,triangle,726.0,i,mismatch,True
9buso7t050,91.0,Shakira,xxx,Self,square,714.0,e,match,True
9buso7t050,92.0,Shakira,xxx,Friend,square,628.0,i,mismatch,True
9buso7t050,93.0,Shakira,xxx,Self,circle,662.0,i,mismatch,True
9buso7t050,94.0,Shakira,xxx,Self,square,781.0,e,match,True
9buso7t050,95.0,Shakira,xxx,Friend,circle,560.0,i,mismatch,False
9buso7t050,96.0,Shakira,xxx,Friend,square,815.0,e,match,False
9buso7t050,97.0,Shakira,xxx,Stranger,triangle,851.0,e,match,True
9buso7t050,98.0,Shakira,xxx,Self,circle,730.0,i,mismatch,True
9buso7t050,99.0,Shakira,xxx,Self,square,551.0,e,match,True
9buso7t050,100.0,Shakira,xxx,Friend,triangle,618.0,i,mismatch,True
9buso7t050,101.0,Shakira,xxx,Stranger,triangle,621.0,e,match,True
9buso7t050,102.0,Shakira,xxx,Stranger,circle,760.0,i,mismatch,True
9buso7t050,103.0,Shakira,xxx,Stranger,square,834.0,i,mismatch,True
9buso7t050,104.0,Shakira,xxx,Self,circle,573.0,e,match,False
9buso7t050,105.0,Shakira,xxx,Friend,circle,685.0,i,mismatch,False
9buso7t050,106.0,Shakira,xxx,Friend,square,795.0,i,mismatch,True
9buso7t050,107.0,Shakira,xxx,Stranger,triangle,927.0,e,match,True
9buso7t050,108.0,Shakira,xxx,Friend,triangle,619.0,i,mismatch,True
9buso7t050,109.0,Shakira,xxx,Stranger,circle,793.0,i,mismatch,True
9buso7t050,110.0,Shakira,xxx,Self,circle,1218.0,i,mismatch,True
9buso7t050,111.0,Shakira,xxx,Self,triangle,654.0,e,match,False
9buso7t050,112.0,Shakira,xxx,Stranger,square,674.0,i,mismatch,True
9buso7t050,113.0,Shakira,xxx,Stranger,circle,888.0,i,mismatch,True
9buso7t050,114.0,Shakira,xxx,Self,square,1274.0,i,mismatch,False
9buso7t050,115.0,Shakira,xxx,Stranger,circle,661.0,i,mismatch,True
9buso7t050,116.0,Shakira,xxx,Friend,triangle,620.0,i,mismatch,True
9buso7t050,117.0,Shakira,xxx,Self,square,920.0,e,match,True
9buso7t050,118.0,Shakira,xxx,Stranger,circle,588.0,i,mismatch,True
9buso7t050,119.0,Shakira,xxx,Friend,triangle,833.0,i,mismatch,True
9buso7t050,120.0,Shakira,xxx,Stranger,triangle,643.0,e,match,True
9buso7t050,121.0,Shakira,xxx,Self,square,754.0,i,mismatch,False
9buso7t050,122.0,Shakira,xxx,Stranger,circle,707.0,i,mismatch,True
9buso7t050,123.0,Shakira,xxx,Self,circle,745.0,e,match,False
9buso7t050,124.0,Shakira,xxx,Stranger,square,907.0,e,match,False
9buso7t050,125.0,Shakira,xxx,Friend,triangle,829.0,i,mismatch,True
9buso7t050,126.0,Shakira,xxx,Self,triangle,624.0,e,match,False
9buso7t050,127.0,Shakira,xxx,Self,triangle,510.0,e,match,False
9buso7t050,128.0,Shakira,xxx,Friend,circle,375.0,i,mismatch,False
9buso7t050,129.0,Shakira,xxx,Friend,circle,396.0,e,match,True
9buso7t050,130.0,Shakira,xxx,Self,triangle,464.0,e,match,False
9buso7t050,131.0,Shakira,xxx,Stranger,triangle,303.0,i,mismatch,False
9buso7t050,132.0,Shakira,xxx,Stranger,circle,311.0,e,match,False
9buso7t050,133.0,Shakira,xxx,Friend,triangle,198.0,i,mismatch,True
9buso7t050,134.0,Shakira,xxx,Stranger,circle,723.0,i,mismatch,True
9buso7t050,135.0,Shakira,xxx,Self,triangle,747.0,i,mismatch,True
9buso7t050,136.0,Shakira,xxx,Stranger,triangle,449.0,e,match,True
9buso7t050,137.0,Shakira,xxx,Stranger,circle,612.0,i,mismatch,True
9buso7t050,138.0,Shakira,xxx,Friend,circle,694.0,i,mismatch,False
9buso7t050,139.0,Shakira,xxx,Stranger,circle,770.0,i,mismatch,True
9buso7t050,140.0,Shakira,xxx,Stranger,square,1428.0,i,mismatch,True
9buso7t050,141.0,Shakira,xxx,Stranger,circle,695.0,i,mismatch,True
9buso7t050,142.0,Shakira,xxx,Stranger,triangle,450.0,e,match,True
9buso7t050,143.0,Shakira,xxx,Self,square,389.0,e,match,True
9buso7t050,144.0,Shakira,xxx,Friend,circle,375.0,e,match,True
9buso7t050,145.0,Shakira,xxx,Stranger,square,1169.0,i,mismatch,True
9buso7t050,146.0,Shakira,xxx,Stranger,circle,585.0,i,mismatch,True
9buso7t050,147.0,Shakira,xxx,Self,square,613.0,e,match,True
9buso7t050,148.0,Shakira,xxx,Self,circle,640.0,i,mismatch,True
9buso7t050,149.0,Shakira,xxx,Self,triangle,701.0,i,mismatch,True
9buso7t050,150.0,Shakira,xxx,Stranger,square,974.0,e,match,False
9buso7t050,151.0,Shakira,xxx,Friend,square,518.0,e,match,False
9buso7t050,152.0,Shakira,xxx,Self,square,413.0,e,match,True
9buso7t050,153.0,Shakira,xxx,Self,triangle,573.0,i,mismatch,True
9buso7t050,154.0,Shakira,xxx,Self,triangle,649.0,e,match,False
9buso7t050,155.0,Shakira,xxx,Friend,circle,710.0,e,match,True
9buso7t050,156.0,Shakira,xxx,Self,square,748.0,e,match,True
9buso7t050,157.0,Shakira,xxx,Stranger,triangle,510.0,e,match,True
9buso7t050,158.0,Shakira,xxx,Friend,triangle,562.0,i,mismatch,True
9buso7t050,159.0,Shakira,xxx,Stranger,square,673.0,i,mismatch,True
9buso7t050,160.0,Shakira,xxx,Stranger,triangle,778.0,e,match,True
9buso7t050,161.0,Shakira,xxx,Friend,circle,1055.0,i,mismatch,False
9buso7t050,162.0,Shakira,xxx,Self,triangle,1197.0,i,mismatch,True
9buso7t050,163.0,Shakira,xxx,Friend,square,1069.0,i,mismatch,True
9buso7t050,164.0,Shakira,xxx,Stranger,circle,497.0,i,mismatch,True
9buso7t050,165.0,Shakira,xxx,Stranger,circle,639.0,i,mismatch,True
9buso7t050,166.0,Shakira,xxx,Stranger,triangle,627.0,e,match,True
9buso7t050,167.0,Shakira,xxx,Self,circle,728.0,i,mismatch,True
9buso7t050,168.0,Shakira,xxx,Friend,triangle,715.0,i,mismatch,True
9buso7t050,169.0,Shakira,xxx,Friend,triangle,535.0,i,mismatch,True
9buso7t050,170.0,Shakira,xxx,Self,circle,785.0,e,match,False
9buso7t050,171.0,Shakira,xxx,Stranger,circle,813.0,i,mismatch,True
9buso7t050,172.0,Shakira,xxx,Stranger,square,789.0,e,match,False
9buso7t050,173.0,Shakira,xxx,Stranger,square,742.0,i,mismatch,True
9buso7t050,174.0,Shakira,xxx,Self,circle,720.0,e,match,False
9buso7t050,175.0,Shakira,xxx,Friend,circle,584.0,i,mismatch,False
9buso7t050,176.0,Shakira,xxx,Self,square,864.0,e,match,True
9buso7t050,177.0,Shakira,xxx,Self,circle,627.0,i,mismatch,True
9buso7t050,178.0,Shakira,xxx,Stranger,triangle,577.0,e,match,True
9buso7t050,179.0,Shakira,xxx,Friend,square,587.0,i,mismatch,True
9buso7t050,180.0,Shakira,xxx,Friend,triangle,481.0,i,mismatch,True
9buso7t050,181.0,Shakira,xxx,Friend,square,563.0,i,mismatch,True
9buso7t050,182.0,Shakira,xxx,Self,triangle,946.0,i,mismatch,True
9buso7t050,183.0,Shakira,xxx,Self,square,752.0,e,match,True
9buso7t050,184.0,Shakira,xxx,Friend,triangle,656.0,i,mismatch,True
9buso7t050,185.0,Shakira,xxx,Self,square,680.0,e,match,True
9buso7t050,186.0,Shakira,xxx,Friend,triangle,562.0,i,mismatch,True
9buso7t050,187.0,Shakira,xxx,Self,square,574.0,e,match,True
9buso7t050,188.0,Shakira,xxx,Friend,triangle,490.0,i,mismatch,True
9buso7t050,189.0,Shakira,xxx,Friend,square,635.0,i,mismatch,True
9buso7t050,190.0,Shakira,xxx,Self,circle,737.0,i,mismatch,True
9buso7t050,191.0,Shakira,xxx,Self,circle,700.0,i,mismatch,True
9buso7t050,192.0,Shakira,xxx,Friend,square,639.0,e,match,False
9buso7t050,193.0,Shakira,xxx,Self,circle,996.0,i,mismatch,True
9buso7t050,194.0,Shakira,xxx,Self,square,774.0,e,match,True
9buso7t050,195.0,Shakira,xxx,Stranger,square,623.0,i,mismatch,True
9buso7t050,196.0,Shakira,xxx,Stranger,circle,587.0,i,mismatch,True
9buso7t050,197.0,Shakira,xxx,Self,triangle,620.0,i,mismatch,True
9buso7t050,198.0,Shakira,xxx,Self,circle,656.0,i,mismatch,True
9buso7t050,199.0,Shakira,xxx,Self,triangle,910.0,i,mismatch,True
9buso7t050,200.0,Shakira,xxx,Self,square,658.0,e,match,True
9buso7t050,201.0,Shakira,xxx,Stranger,square,527.0,i,mismatch,True
9buso7t050,202.0,Shakira,xxx,Self,triangle,759.0,i,mismatch,True
9buso7t050,203.0,Shakira,xxx,Friend,triangle,678.0,i,mismatch,True
9buso7t050,204.0,Shakira,xxx,Friend,square,539.0,i,mismatch,True
9buso7t050,205.0,Shakira,xxx,Stranger,triangle,718.0,e,match,True
9buso7t050,206.0,Shakira,xxx,Self,circle,595.0,i,mismatch,True
9buso7t050,207.0,Shakira,xxx,Self,triangle,658.0,i,mismatch,True
9buso7t050,208.0,Shakira,xxx,Stranger,circle,731.0,i,mismatch,True
9buso7t050,209.0,Shakira,xxx,Friend,circle,564.0,e,match,True
9buso7t050,210.0,Shakira,xxx,Stranger,square,1012.0,i,mismatch,True
9buso7t050,211.0,Shakira,xxx,Friend,circle,924.0,e,match,True
9buso7t050,212.0,Shakira,xxx,Stranger,square,919.0,i,mismatch,True
9buso7t050,213.0,Shakira,xxx,Stranger,circle,706.0,i,mismatch,True
9buso7t050,214.0,Shakira,xxx,Friend,square,640.0,e,match,False
9buso7t050,215.0,Shakira,xxx,Friend,circle,1108.0,e,match,True
9buso7t050,216.0,Shakira,xxx,Self,circle,689.0,i,mismatch,True
9buso7t050,217.0,Shakira,xxx,Self,square,716.0,i,mismatch,False
9buso7t050,218.0,Shakira,xxx,Stranger,triangle,696.0,e,match,True
9buso7t050,219.0,Shakira,xxx,Self,square,604.0,e,match,True
9buso7t050,220.0,Shakira,xxx,Friend,triangle,683.0,i,mismatch,True
9buso7t050,221.0,Shakira,xxx,Self,circle,934.0,i,mismatch,True
9buso7t050,222.0,Shakira,xxx,Stranger,circle,708.0,i,mismatch,True
9buso7t050,223.0,Shakira,xxx,Friend,circle,1044.0,e,match,True
9buso7t050,224.0,Shakira,xxx,Self,triangle,645.0,i,mismatch,True
9buso7t050,225.0,Shakira,xxx,Stranger,triangle,598.0,e,match,True
9buso7t050,226.0,Shakira,xxx,Self,circle,745.0,i,mismatch,True
9buso7t050,227.0,Shakira,xxx,Stranger,triangle,724.0,e,match,True
9buso7t050,228.0,Shakira,xxx,Stranger,circle,580.0,i,mismatch,True
9buso7t050,229.0,Shakira,xxx,Self,circle,769.0,e,match,False
9buso7t050,230.0,Shakira,xxx,Friend,square,793.0,i,mismatch,True
9buso7t050,231.0,Shakira,xxx,Stranger,triangle,659.0,e,match,True
9buso7t050,232.0,Shakira,xxx,Stranger,square,758.0,i,mismatch,True
9buso7t050,233.0,Shakira,xxx,Self,triangle,773.0,i,mismatch,True
9buso7t050,234.0,Shakira,xxx,Friend,square,896.0,i,mismatch,True
9buso7t050,235.0,Shakira,xxx,Self,circle,849.0,i,mismatch,True
9buso7t050,236.0,Shakira,xxx,Stranger,circle,861.0,i,mismatch,True
9buso7t050,237.0,Shakira,xxx,Self,triangle,919.0,i,mismatch,True
9buso7t050,238.0,Shakira,xxx,Friend,circle,999.0,e,match,True
9buso7t050,239.0,Shakira,xxx,Friend,triangle,649.0,i,mismatch,True
9buso7t050,240.0,Shakira,xxx,Friend,triangle,446.0,i,mismatch,True
9buso7t050,241.0,Shakira,xxx,Stranger,square,986.0,i,mismatch,True
9buso7t050,242.0,Shakira,xxx,Stranger,square,566.0,i,mismatch,True
9buso7t050,243.0,Shakira,xxx,Stranger,circle,588.0,i,mismatch,True
9buso7t050,244.0,Shakira,xxx,Stranger,triangle,537.0,e,match,True
9buso7t050,245.0,Shakira,xxx,Stranger,triangle,754.0,e,match,True
9buso7t050,246.0,Shakira,xxx,Self,circle,776.0,i,mismatch,True
9buso7t050,247.0,Shakira,xxx,Stranger,circle,914.0,i,mismatch,True
9buso7t050,248.0,Shakira,xxx,Self,triangle,969.0,i,mismatch,True
9buso7t050,249.0,Shakira,xxx,Friend,square,850.0,i,mismatch,True
9buso7t050,250.0,Shakira,xxx,Stranger,circle,691.0,e,match,False
9buso7t050,251.0,Shakira,xxx,Self,triangle,800.0,i,mismatch,True
9buso7t050,252.0,Shakira,xxx,Friend,square,884.0,i,mismatch,True
9buso7t050,253.0,Shakira,xxx,Stranger,square,986.0,i,mismatch,True
9buso7t050,254.0,Shakira,xxx,Friend,circle,560.0,i,mismatch,False
9buso7t050,255.0,Shakira,xxx,Friend,square,1008.0,i,mismatch,True
9buso7t050,256.0,Shakira,xxx,Stranger,circle,866.0,i,mismatch,True
