Participant,Trial,Answer,Correct,Correct_Answer,Condition,RT,Response,Shape
6n6ab83d1c,1.0,You,True,You,Self,3598.0,v,square
6n6ab83d1c,2.0,Pink,True,Pink,Stranger,2587.0,b,circle
6n6ab83d1c,3.0,You,True,You,Self,2691.0,v,square
6n6ab83d1c,4.0,You,True,You,Self,3209.0,v,square
6n6ab83d1c,5.0,You,True,You,Self,1996.0,v,square
6n6ab83d1c,6.0,Pink,True,Pink,Stranger,3018.0,b,circle
6n6ab83d1c,7.0,Mariam,True,Mariam,Friend,1562.0,n,triangle
6n6ab83d1c,8.0,Pink,True,Pink,Stranger,3169.0,b,circle
6n6ab83d1c,9.0,You,True,You,Self,2864.0,v,square
6n6ab83d1c,10.0,Pink,True,Pink,Stranger,2428.0,b,circle
6n6ab83d1c,11.0,Pink,True,Pink,Stranger,1654.0,b,circle
6n6ab83d1c,12.0,You,True,You,Self,1989.0,v,square
6n6ab83d1c,13.0,Pink,True,Pink,Stranger,3455.0,b,circle
6n6ab83d1c,14.0,Pink,True,Pink,Stranger,800.0,b,circle
6n6ab83d1c,15.0,Mariam,True,Mariam,Friend,2915.0,n,triangle
6n6ab83d1c,16.0,Mariam,True,Mariam,Friend,1674.0,n,triangle
6n6ab83d1c,17.0,Pink,True,Pink,Stranger,1233.0,b,circle
6n6ab83d1c,18.0,Mariam,True,Mariam,Friend,2598.0,n,triangle
6n6ab83d1c,19.0,Pink,True,Pink,Stranger,1170.0,b,circle
lxmnawcu9z,1.0,,False,Rihanna,Stranger,,,triangle
lxmnawcu9z,2.0,Femke,True,Femke,Friend,2566.0,n,circle
lxmnawcu9z,3.0,You,True,You,Self,1521.0,v,square
lxmnawcu9z,4.0,You,True,You,Self,1251.0,v,square
lxmnawcu9z,5.0,Femke,True,Femke,Friend,1172.0,n,circle
lxmnawcu9z,6.0,Rihanna,True,Rihanna,Stranger,795.0,b,triangle
lxmnawcu9z,7.0,Rihanna,True,Rihanna,Stranger,1237.0,b,triangle
lxmnawcu9z,8.0,You,True,You,Self,894.0,v,square
lxmnawcu9z,9.0,Femke,True,Femke,Friend,699.0,n,circle
lxmnawcu9z,10.0,Rihanna,True,Rihanna,Stranger,1151.0,b,triangle
lxmnawcu9z,11.0,You,True,You,Self,619.0,v,square
lxmnawcu9z,12.0,Femke,True,Femke,Friend,603.0,n,circle
lxmnawcu9z,13.0,Femke,True,Femke,Friend,775.0,n,circle
lxmnawcu9z,14.0,Rihanna,True,Rihanna,Stranger,811.0,b,triangle
lxmnawcu9z,15.0,Rihanna,True,Rihanna,Stranger,939.0,b,triangle
lxmnawcu9z,16.0,You,True,You,Self,730.0,v,square
lxmnawcu9z,17.0,You,True,You,Self,629.0,v,square
lxmnawcu9z,18.0,Rihanna,True,Rihanna,Stranger,1447.0,b,triangle
lxmnawcu9z,19.0,You,True,You,Self,685.0,v,square
lxmnawcu9z,20.0,Rihanna,True,Rihanna,Stranger,594.0,b,triangle
f1fw4wnf00,1.0,,False,Martijn,Friend,,,triangle
f1fw4wnf00,2.0,Martijn,True,Martijn,Friend,3327.0,n,triangle
f1fw4wnf00,3.0,Martijn,True,Martijn,Friend,1078.0,n,triangle
f1fw4wnf00,4.0,You,True,You,Self,1766.0,v,circle
f1fw4wnf00,5.0,Bono,True,Bono,Stranger,1314.0,b,square
f1fw4wnf00,6.0,Martijn,True,Martijn,Friend,1600.0,n,triangle
f1fw4wnf00,7.0,You,True,You,Self,1238.0,v,circle
f1fw4wnf00,8.0,Bono,True,Bono,Stranger,1008.0,b,square
f1fw4wnf00,9.0,Martijn,True,Martijn,Friend,1222.0,n,triangle
f1fw4wnf00,10.0,Bono,True,Bono,Stranger,874.0,b,square
f1fw4wnf00,11.0,Bono,True,Bono,Stranger,1022.0,b,square
f1fw4wnf00,12.0,You,True,You,Self,599.0,v,circle
f1fw4wnf00,13.0,Bono,True,Bono,Stranger,798.0,b,square
f1fw4wnf00,14.0,You,True,You,Self,1534.0,v,circle
f1fw4wnf00,15.0,Martijn,True,Martijn,Friend,1283.0,n,triangle
f1fw4wnf00,16.0,You,True,You,Self,1169.0,v,circle
f1fw4wnf00,17.0,Martijn,True,Martijn,Friend,980.0,n,triangle
f1fw4wnf00,18.0,You,True,You,Self,1326.0,v,circle
f1fw4wnf00,19.0,Martijn,True,Martijn,Friend,951.0,n,triangle
f1fw4wnf00,20.0,You,True,You,Self,607.0,v,circle
p0blnsv7dy,1.0,Dai,True,Dai,Friend,4166.0,n,circle
p0blnsv7dy,2.0,Dai,True,Dai,Friend,2649.0,n,circle
p0blnsv7dy,3.0,You,True,You,Self,2480.0,v,triangle
p0blnsv7dy,4.0,Seal,True,Seal,Stranger,3663.0,b,square
p0blnsv7dy,5.0,Seal,False,You,Self,1883.0,b,triangle
p0blnsv7dy,6.0,You,True,You,Self,3087.0,v,triangle
p0blnsv7dy,7.0,Dai,True,Dai,Friend,2430.0,n,circle
p0blnsv7dy,8.0,Dai,True,Dai,Friend,1298.0,n,circle
p0blnsv7dy,9.0,Dai,True,Dai,Friend,1130.0,n,circle
p0blnsv7dy,10.0,You,True,You,Self,922.0,v,triangle
p0blnsv7dy,11.0,Seal,True,Seal,Stranger,842.0,b,square
p0blnsv7dy,12.0,You,True,You,Self,970.0,v,triangle
p0blnsv7dy,13.0,Seal,True,Seal,Stranger,1146.0,b,square
p0blnsv7dy,14.0,Seal,True,Seal,Stranger,802.0,b,square
p0blnsv7dy,15.0,Dai,True,Dai,Friend,532.0,n,circle
p0blnsv7dy,16.0,Seal,True,Seal,Stranger,643.0,b,square
p0blnsv7dy,17.0,Seal,True,Seal,Stranger,594.0,b,square
p0blnsv7dy,18.0,Seal,True,Seal,Stranger,682.0,b,square
p0blnsv7dy,19.0,Seal,True,Seal,Stranger,874.0,b,square
p0blnsv7dy,20.0,Seal,True,Seal,Stranger,522.0,b,square
p0blnsv7dy,21.0,Dai,True,Dai,Friend,634.0,n,circle
p0blnsv7dy,22.0,You,True,You,Self,458.0,v,triangle
p0blnsv7dy,23.0,You,True,You,Self,666.0,v,triangle
p0blnsv7dy,24.0,Dai,True,Dai,Friend,546.0,n,circle
f6cmay5gj4,1.0,LOUIS,True,LOUIS,Friend,4041.0,n,carré
f6cmay5gj4,2.0,Vous,True,Vous,Self,2223.0,v,triangle
f6cmay5gj4,3.0,Sting,True,Sting,Stranger,1665.0,b,cercle
f6cmay5gj4,4.0,Vous,True,Vous,Self,1375.0,v,triangle
f6cmay5gj4,5.0,Sting,True,Sting,Stranger,3142.0,b,cercle
f6cmay5gj4,6.0,Sting,True,Sting,Stranger,694.0,b,cercle
f6cmay5gj4,7.0,Vous,True,Vous,Self,1071.0,v,triangle
f6cmay5gj4,8.0,Sting,True,Sting,Stranger,866.0,b,cercle
f6cmay5gj4,9.0,LOUIS,True,LOUIS,Friend,1210.0,n,carré
f6cmay5gj4,10.0,Sting,True,Sting,Stranger,634.0,b,cercle
f6cmay5gj4,11.0,Sting,True,Sting,Stranger,724.0,b,cercle
f6cmay5gj4,12.0,LOUIS,True,LOUIS,Friend,2187.0,n,carré
f6cmay5gj4,13.0,Sting,True,Sting,Stranger,917.0,b,cercle
f6cmay5gj4,14.0,LOUIS,True,LOUIS,Friend,1257.0,n,carré
f6cmay5gj4,15.0,LOUIS,True,LOUIS,Friend,1030.0,n,carré
f6cmay5gj4,16.0,LOUIS,True,LOUIS,Friend,1043.0,n,carré
f6cmay5gj4,17.0,Sting,True,Sting,Stranger,1884.0,b,cercle
f6cmay5gj4,18.0,Vous,True,Vous,Self,875.0,v,triangle
f6cmay5gj4,19.0,Sting,True,Sting,Stranger,590.0,b,cercle
5vqv1fur3q,1.0,Pink,True,Pink,Stranger,5511.0,b,carré
5vqv1fur3q,2.0,Vous,True,Vous,Self,1523.0,v,cercle
5vqv1fur3q,3.0,Pink,True,Pink,Stranger,1413.0,b,carré
5vqv1fur3q,4.0,Aude,True,Aude,Friend,1367.0,n,triangle
5vqv1fur3q,5.0,Aude,True,Aude,Friend,1238.0,n,triangle
5vqv1fur3q,6.0,Pink,True,Pink,Stranger,719.0,b,carré
5vqv1fur3q,7.0,Aude,True,Aude,Friend,1311.0,n,triangle
5vqv1fur3q,8.0,Aude,True,Aude,Friend,1695.0,n,triangle
5vqv1fur3q,9.0,Pink,True,Pink,Stranger,653.0,b,carré
5vqv1fur3q,10.0,Vous,True,Vous,Self,594.0,v,cercle
5vqv1fur3q,11.0,Vous,True,Vous,Self,830.0,v,cercle
5vqv1fur3q,12.0,Aude,True,Aude,Friend,1262.0,n,triangle
5vqv1fur3q,13.0,Pink,True,Pink,Stranger,637.0,b,carré
5vqv1fur3q,14.0,Vous,True,Vous,Self,698.0,v,cercle
5vqv1fur3q,15.0,Pink,True,Pink,Stranger,1521.0,b,carré
5vqv1fur3q,16.0,Aude,True,Aude,Friend,817.0,n,triangle
5vqv1fur3q,17.0,Vous,True,Vous,Self,999.0,v,cercle
5vqv1fur3q,18.0,Pink,True,Pink,Stranger,1715.0,b,carré
5vqv1fur3q,19.0,Vous,True,Vous,Self,602.0,v,cercle
m4puwasx9s,1.0,,False,Manu,Friend,,,cercle
m4puwasx9s,2.0,Vous,True,Vous,Self,2247.0,v,triangle
m4puwasx9s,3.0,Elvis,False,Manu,Friend,1379.0,b,cercle
m4puwasx9s,4.0,Manu,True,Manu,Friend,1281.0,n,cercle
m4puwasx9s,5.0,Elvis,True,Elvis,Stranger,1628.0,b,carré
m4puwasx9s,6.0,Vous,True,Vous,Self,1019.0,v,triangle
m4puwasx9s,7.0,Manu,True,Manu,Friend,1869.0,n,cercle
m4puwasx9s,8.0,Manu,True,Manu,Friend,870.0,n,cercle
m4puwasx9s,9.0,Elvis,True,Elvis,Stranger,981.0,b,carré
m4puwasx9s,10.0,Manu,True,Manu,Friend,1314.0,n,cercle
m4puwasx9s,11.0,Vous,True,Vous,Self,1182.0,v,triangle
m4puwasx9s,12.0,Vous,True,Vous,Self,820.0,v,triangle
m4puwasx9s,13.0,Vous,True,Vous,Self,924.0,v,triangle
m4puwasx9s,14.0,Manu,True,Manu,Friend,1619.0,n,cercle
m4puwasx9s,15.0,Elvis,True,Elvis,Stranger,833.0,b,carré
m4puwasx9s,16.0,Vous,True,Vous,Self,937.0,v,triangle
m4puwasx9s,17.0,Elvis,True,Elvis,Stranger,1742.0,b,carré
m4puwasx9s,18.0,Manu,True,Manu,Friend,814.0,n,cercle
m4puwasx9s,19.0,Elvis,True,Elvis,Stranger,962.0,b,carré
m4puwasx9s,20.0,Elvis,True,Elvis,Stranger,943.0,b,carré
m4puwasx9s,21.0,Manu,True,Manu,Friend,1093.0,n,cercle
m4puwasx9s,22.0,Manu,True,Manu,Friend,848.0,n,cercle
wfmbfazspo,1.0,,False,Laeti,Friend,,,carré
wfmbfazspo,2.0,Vous,True,Vous,Self,3416.0,v,triangle
wfmbfazspo,3.0,Vous,True,Vous,Self,1046.0,v,triangle
wfmbfazspo,4.0,Vous,True,Vous,Self,780.0,v,triangle
wfmbfazspo,5.0,Madonna,True,Madonna,Stranger,1021.0,b,cercle
wfmbfazspo,6.0,Madonna,True,Madonna,Stranger,720.0,b,cercle
wfmbfazspo,7.0,Vous,True,Vous,Self,773.0,v,triangle
wfmbfazspo,8.0,Madonna,True,Madonna,Stranger,519.0,b,cercle
wfmbfazspo,9.0,Laeti,True,Laeti,Friend,631.0,n,carré
wfmbfazspo,10.0,Vous,True,Vous,Self,523.0,v,triangle
wfmbfazspo,11.0,Madonna,True,Madonna,Stranger,497.0,b,cercle
wfmbfazspo,12.0,Vous,True,Vous,Self,583.0,v,triangle
wfmbfazspo,13.0,Laeti,True,Laeti,Friend,446.0,n,carré
wfmbfazspo,14.0,Laeti,True,Laeti,Friend,587.0,n,carré
wfmbfazspo,15.0,Vous,True,Vous,Self,924.0,v,triangle
wfmbfazspo,16.0,Laeti,True,Laeti,Friend,619.0,n,carré
wfmbfazspo,17.0,Madonna,True,Madonna,Stranger,538.0,b,cercle
wfmbfazspo,18.0,Madonna,True,Madonna,Stranger,504.0,b,cercle
wfmbfazspo,19.0,Vous,True,Vous,Self,644.0,v,triangle
wfmbfazspo,20.0,Laeti,True,Laeti,Friend,608.0,n,carré
wd5oqrlda9,1.0,Rihanna,True,Rihanna,Stranger,5232.0,b,triangle
wd5oqrlda9,2.0,Margaux,True,Margaux,Friend,1618.0,n,cercle
wd5oqrlda9,3.0,Vous,True,Vous,Self,568.0,v,carré
wd5oqrlda9,4.0,Vous,True,Vous,Self,1099.0,v,carré
wd5oqrlda9,5.0,Rihanna,True,Rihanna,Stranger,1969.0,b,triangle
wd5oqrlda9,6.0,Rihanna,True,Rihanna,Stranger,739.0,b,triangle
wd5oqrlda9,7.0,Margaux,True,Margaux,Friend,732.0,n,cercle
wd5oqrlda9,8.0,Margaux,True,Margaux,Friend,2080.0,n,cercle
wd5oqrlda9,9.0,Rihanna,True,Rihanna,Stranger,860.0,b,triangle
wd5oqrlda9,10.0,Rihanna,True,Rihanna,Stranger,685.0,b,triangle
wd5oqrlda9,11.0,Vous,True,Vous,Self,394.0,v,carré
wd5oqrlda9,12.0,Rihanna,True,Rihanna,Stranger,576.0,b,triangle
wd5oqrlda9,13.0,Margaux,True,Margaux,Friend,593.0,n,cercle
wd5oqrlda9,14.0,Margaux,True,Margaux,Friend,373.0,n,cercle
wd5oqrlda9,15.0,Margaux,True,Margaux,Friend,468.0,n,cercle
wd5oqrlda9,16.0,Vous,True,Vous,Self,629.0,v,carré
wd5oqrlda9,17.0,Margaux,True,Margaux,Friend,699.0,n,cercle
wd5oqrlda9,18.0,Vous,True,Vous,Self,1227.0,v,carré
wd5oqrlda9,19.0,Margaux,True,Margaux,Friend,600.0,n,cercle
a2bgs02tnv,1.0,Vous,False,Sting,Stranger,5746.0,v,carré
a2bgs02tnv,2.0,,False,Vous,Self,,,triangle
a2bgs02tnv,3.0,Vincent,False,Sting,Stranger,1904.0,n,carré
a2bgs02tnv,4.0,Sting,False,Vous,Self,2248.0,b,triangle
a2bgs02tnv,5.0,Vincent,True,Vincent,Friend,4009.0,n,cercle
a2bgs02tnv,6.0,Vous,True,Vous,Self,2857.0,v,triangle
a2bgs02tnv,7.0,Vous,True,Vous,Self,1976.0,v,triangle
a2bgs02tnv,8.0,Vous,True,Vous,Self,2360.0,v,triangle
a2bgs02tnv,9.0,Sting,True,Sting,Stranger,1817.0,b,carré
a2bgs02tnv,10.0,Vincent,True,Vincent,Friend,791.0,n,cercle
a2bgs02tnv,11.0,Sting,False,Vous,Self,907.0,b,triangle
a2bgs02tnv,12.0,Sting,True,Sting,Stranger,1876.0,b,carré
a2bgs02tnv,13.0,Vous,True,Vous,Self,813.0,v,triangle
a2bgs02tnv,14.0,Vous,True,Vous,Self,749.0,v,triangle
a2bgs02tnv,15.0,Sting,True,Sting,Stranger,775.0,b,carré
a2bgs02tnv,16.0,Sting,True,Sting,Stranger,801.0,b,carré
a2bgs02tnv,17.0,Vous,True,Vous,Self,745.0,v,triangle
a2bgs02tnv,18.0,Sting,True,Sting,Stranger,641.0,b,carré
a2bgs02tnv,19.0,Vincent,True,Vincent,Friend,835.0,n,cercle
a2bgs02tnv,20.0,Vincent,True,Vincent,Friend,652.0,n,cercle
a2bgs02tnv,21.0,Sting,True,Sting,Stranger,2563.0,b,carré
a2bgs02tnv,22.0,Vincent,True,Vincent,Friend,701.0,n,cercle
a2bgs02tnv,23.0,Vous,True,Vous,Self,711.0,v,triangle
a2bgs02tnv,24.0,Vincent,True,Vincent,Friend,642.0,n,cercle
a2bgs02tnv,25.0,Vous,False,Sting,Stranger,628.0,v,carré
a2bgs02tnv,26.0,Sting,True,Sting,Stranger,751.0,b,carré
a2bgs02tnv,27.0,Vous,True,Vous,Self,749.0,v,triangle
a2bgs02tnv,28.0,Vous,True,Vous,Self,848.0,v,triangle
a2bgs02tnv,29.0,Vous,True,Vous,Self,576.0,v,triangle
a2bgs02tnv,30.0,Sting,True,Sting,Stranger,1582.0,b,carré
a2bgs02tnv,31.0,Vous,True,Vous,Self,677.0,v,triangle
a2bgs02tnv,32.0,Vincent,True,Vincent,Friend,724.0,n,cercle
a2bgs02tnv,33.0,Sting,True,Sting,Stranger,1831.0,b,carré
a2bgs02tnv,34.0,Sting,True,Sting,Stranger,680.0,b,carré
a2bgs02tnv,35.0,Sting,True,Sting,Stranger,695.0,b,carré
a2bgs02tnv,36.0,Vincent,True,Vincent,Friend,802.0,n,cercle
a2bgs02tnv,37.0,Vincent,True,Vincent,Friend,751.0,n,cercle
a2bgs02tnv,38.0,Vincent,True,Vincent,Friend,505.0,n,cercle
a2bgs02tnv,39.0,Vincent,True,Vincent,Friend,589.0,n,cercle
a2bgs02tnv,40.0,Sting,True,Sting,Stranger,712.0,b,carré
a2bgs02tnv,41.0,Vincent,True,Vincent,Friend,628.0,n,cercle
a2bgs02tnv,42.0,Vous,True,Vous,Self,599.0,v,triangle
a2bgs02tnv,43.0,Vincent,True,Vincent,Friend,518.0,n,cercle
a2bgs02tnv,44.0,Vincent,True,Vincent,Friend,1473.0,n,cercle
0nzaywwf3r,1.0,You,True,You,Self,3276.0,v,circle
0nzaywwf3r,2.0,You,True,You,Self,877.0,v,circle
0nzaywwf3r,3.0,Kasen,False,Eminem,Stranger,870.0,n,triangle
0nzaywwf3r,4.0,Kasen,True,Kasen,Friend,2554.0,n,square
0nzaywwf3r,5.0,Kasen,True,Kasen,Friend,945.0,n,square
0nzaywwf3r,6.0,You,True,You,Self,666.0,v,circle
0nzaywwf3r,7.0,Eminem,True,Eminem,Stranger,903.0,b,triangle
0nzaywwf3r,8.0,Kasen,True,Kasen,Friend,1078.0,n,square
0nzaywwf3r,9.0,You,True,You,Self,442.0,v,circle
0nzaywwf3r,10.0,Eminem,True,Eminem,Stranger,2467.0,b,triangle
0nzaywwf3r,11.0,You,True,You,Self,1099.0,v,circle
0nzaywwf3r,12.0,You,True,You,Self,562.0,v,circle
0nzaywwf3r,13.0,Kasen,True,Kasen,Friend,654.0,n,square
0nzaywwf3r,14.0,You,True,You,Self,600.0,v,circle
0nzaywwf3r,15.0,You,True,You,Self,622.0,v,circle
0nzaywwf3r,16.0,You,True,You,Self,428.0,v,circle
0nzaywwf3r,17.0,You,True,You,Self,933.0,v,circle
0nzaywwf3r,18.0,Kasen,True,Kasen,Friend,1428.0,n,square
0nzaywwf3r,19.0,Kasen,True,Kasen,Friend,1219.0,n,square
0nzaywwf3r,20.0,You,True,You,Self,569.0,v,circle
0nzaywwf3r,21.0,Kasen,True,Kasen,Friend,610.0,n,square
0nzaywwf3r,22.0,You,True,You,Self,345.0,v,circle
0uy6mt4dw1,1.0,Vous,True,Vous,Self,4886.0,v,cercle
0uy6mt4dw1,2.0,,False,Vous,Self,,,cercle
0uy6mt4dw1,3.0,Vous,True,Vous,Self,3478.0,v,cercle
0uy6mt4dw1,4.0,Vous,True,Vous,Self,2394.0,v,cercle
0uy6mt4dw1,5.0,Vous,True,Vous,Self,1224.0,v,cercle
0uy6mt4dw1,6.0,Vous,True,Vous,Self,1240.0,v,cercle
0uy6mt4dw1,7.0,Vous,True,Vous,Self,1553.0,v,cercle
0uy6mt4dw1,8.0,Lisa,True,Lisa,Friend,2745.0,n,triangle
0uy6mt4dw1,9.0,Vous,True,Vous,Self,1347.0,v,cercle
0uy6mt4dw1,10.0,Shakira,True,Shakira,Stranger,1715.0,b,carré
0uy6mt4dw1,11.0,Lisa,True,Lisa,Friend,2826.0,n,triangle
0uy6mt4dw1,12.0,Vous,True,Vous,Self,1134.0,v,cercle
0uy6mt4dw1,13.0,Lisa,True,Lisa,Friend,2904.0,n,triangle
0uy6mt4dw1,14.0,Lisa,True,Lisa,Friend,2863.0,n,triangle
0uy6mt4dw1,15.0,Vous,True,Vous,Self,2636.0,v,cercle
0uy6mt4dw1,16.0,Lisa,True,Lisa,Friend,1270.0,n,triangle
0uy6mt4dw1,17.0,Shakira,True,Shakira,Stranger,4097.0,b,carré
0uy6mt4dw1,18.0,Lisa,True,Lisa,Friend,1402.0,n,triangle
0uy6mt4dw1,19.0,Shakira,True,Shakira,Stranger,1946.0,b,carré
0uy6mt4dw1,20.0,Shakira,True,Shakira,Stranger,3183.0,b,carré
0uy6mt4dw1,21.0,Lisa,True,Lisa,Friend,1655.0,n,triangle
un02z6x389,1.0,Vous,True,Vous,Self,2698.0,v,triangle
un02z6x389,2.0,Vous,True,Vous,Self,812.0,v,triangle
un02z6x389,3.0,Shakira,True,Shakira,Stranger,1352.0,b,carré
un02z6x389,4.0,Shakira,True,Shakira,Stranger,781.0,b,carré
un02z6x389,5.0,Vous,True,Vous,Self,798.0,v,triangle
un02z6x389,6.0,Océane,True,Océane,Friend,811.0,n,cercle
un02z6x389,7.0,Océane,True,Océane,Friend,644.0,n,cercle
un02z6x389,8.0,Vous,True,Vous,Self,713.0,v,triangle
un02z6x389,9.0,Shakira,True,Shakira,Stranger,507.0,b,carré
un02z6x389,10.0,Vous,True,Vous,Self,574.0,v,triangle
un02z6x389,11.0,Océane,True,Océane,Friend,587.0,n,cercle
un02z6x389,12.0,Océane,True,Océane,Friend,550.0,n,cercle
un02z6x389,13.0,Océane,True,Océane,Friend,364.0,n,cercle
un02z6x389,14.0,Vous,True,Vous,Self,556.0,v,triangle
un02z6x389,15.0,Vous,True,Vous,Self,536.0,v,triangle
un02z6x389,16.0,Shakira,True,Shakira,Stranger,418.0,b,carré
un02z6x389,17.0,Océane,True,Océane,Friend,635.0,n,cercle
un02z6x389,18.0,Océane,True,Océane,Friend,500.0,n,cercle
un02z6x389,19.0,Océane,True,Océane,Friend,460.0,n,cercle
1b9wmbny95,1.0,Dorian,True,Dorian,Friend,5121.0,n,triangle
1b9wmbny95,2.0,Eminem,True,Eminem,Stranger,1648.0,b,carré
1b9wmbny95,3.0,Dorian,True,Dorian,Friend,1182.0,n,triangle
1b9wmbny95,4.0,Eminem,True,Eminem,Stranger,1785.0,b,carré
1b9wmbny95,5.0,Dorian,True,Dorian,Friend,1363.0,n,triangle
1b9wmbny95,6.0,Dorian,True,Dorian,Friend,1810.0,n,triangle
1b9wmbny95,7.0,Eminem,True,Eminem,Stranger,1237.0,b,carré
1b9wmbny95,8.0,Vous,True,Vous,Self,691.0,v,cercle
1b9wmbny95,9.0,Eminem,True,Eminem,Stranger,1273.0,b,carré
1b9wmbny95,10.0,Dorian,True,Dorian,Friend,586.0,n,triangle
1b9wmbny95,11.0,Dorian,True,Dorian,Friend,789.0,n,triangle
1b9wmbny95,12.0,Eminem,True,Eminem,Stranger,644.0,b,carré
1b9wmbny95,13.0,Dorian,True,Dorian,Friend,579.0,n,triangle
1b9wmbny95,14.0,Eminem,True,Eminem,Stranger,693.0,b,carré
1b9wmbny95,15.0,Eminem,True,Eminem,Stranger,932.0,b,carré
1b9wmbny95,16.0,Vous,True,Vous,Self,712.0,v,cercle
1b9wmbny95,17.0,Dorian,True,Dorian,Friend,752.0,n,triangle
1b9wmbny95,18.0,Dorian,True,Dorian,Friend,850.0,n,triangle
1b9wmbny95,19.0,Vous,True,Vous,Self,787.0,v,cercle
5yx499vf6w,1.0,,False,Sting,Stranger,,,carré
5yx499vf6w,2.0,,False,Vous,Self,,,triangle
5yx499vf6w,3.0,,False,Sting,Stranger,,,carré
5yx499vf6w,4.0,Maxime,True,Maxime,Friend,4711.0,n,cercle
5yx499vf6w,5.0,Maxime,True,Maxime,Friend,3060.0,n,cercle
5yx499vf6w,6.0,Sting,True,Sting,Stranger,3166.0,b,carré
5yx499vf6w,7.0,Vous,True,Vous,Self,2206.0,v,triangle
5yx499vf6w,8.0,Vous,True,Vous,Self,2898.0,v,triangle
5yx499vf6w,9.0,Maxime,True,Maxime,Friend,2482.0,n,cercle
5yx499vf6w,10.0,Vous,True,Vous,Self,1926.0,v,triangle
5yx499vf6w,11.0,Vous,True,Vous,Self,1598.0,v,triangle
5yx499vf6w,12.0,Maxime,True,Maxime,Friend,1652.0,n,cercle
5yx499vf6w,13.0,Vous,True,Vous,Self,1711.0,v,triangle
5yx499vf6w,14.0,Vous,True,Vous,Self,1381.0,v,triangle
5yx499vf6w,15.0,Maxime,True,Maxime,Friend,1430.0,n,cercle
5yx499vf6w,16.0,Vous,True,Vous,Self,1348.0,v,triangle
5yx499vf6w,17.0,Sting,True,Sting,Stranger,1388.0,b,carré
5yx499vf6w,18.0,Vous,True,Vous,Self,1521.0,v,triangle
5yx499vf6w,19.0,Maxime,True,Maxime,Friend,2493.0,n,cercle
5yx499vf6w,20.0,Vous,True,Vous,Self,1178.0,v,triangle
5yx499vf6w,21.0,Maxime,True,Maxime,Friend,1052.0,n,cercle
5yx499vf6w,22.0,Sting,True,Sting,Stranger,1078.0,b,carré
3n8mobtwrf,1.0,Vous,True,Vous,Self,3356.0,v,carré
3n8mobtwrf,2.0,Elvis,True,Elvis,Stranger,2178.0,b,cercle
3n8mobtwrf,3.0,Vous,True,Vous,Self,1476.0,v,carré
3n8mobtwrf,4.0,Joel,True,Joel,Friend,616.0,n,triangle
3n8mobtwrf,5.0,Joel,True,Joel,Friend,1098.0,n,triangle
3n8mobtwrf,6.0,Vous,True,Vous,Self,1047.0,v,carré
3n8mobtwrf,7.0,Elvis,True,Elvis,Stranger,710.0,b,cercle
3n8mobtwrf,8.0,Vous,True,Vous,Self,961.0,v,carré
3n8mobtwrf,9.0,Elvis,True,Elvis,Stranger,1710.0,b,cercle
3n8mobtwrf,10.0,Joel,True,Joel,Friend,462.0,n,triangle
3n8mobtwrf,11.0,Vous,True,Vous,Self,634.0,v,carré
3n8mobtwrf,12.0,Joel,True,Joel,Friend,488.0,n,triangle
3n8mobtwrf,13.0,Elvis,True,Elvis,Stranger,809.0,b,cercle
3n8mobtwrf,14.0,Vous,True,Vous,Self,564.0,v,carré
3n8mobtwrf,15.0,Vous,True,Vous,Self,677.0,v,carré
3n8mobtwrf,16.0,Joel,True,Joel,Friend,631.0,n,triangle
3n8mobtwrf,17.0,Joel,True,Joel,Friend,468.0,n,triangle
3n8mobtwrf,18.0,Elvis,True,Elvis,Stranger,620.0,b,cercle
3n8mobtwrf,19.0,Joel,True,Joel,Friend,1193.0,n,triangle
e6z6eb2kpd,1.0,Mathilde,True,Mathilde,Friend,1891.0,n,carré
e6z6eb2kpd,2.0,Mathilde,True,Mathilde,Friend,464.0,n,carré
e6z6eb2kpd,3.0,Vous,True,Vous,Self,562.0,v,triangle
e6z6eb2kpd,4.0,Mathilde,True,Mathilde,Friend,467.0,n,carré
e6z6eb2kpd,5.0,Mathilde,True,Mathilde,Friend,459.0,n,carré
e6z6eb2kpd,6.0,Vous,True,Vous,Self,520.0,v,triangle
e6z6eb2kpd,7.0,Mathilde,True,Mathilde,Friend,521.0,n,carré
e6z6eb2kpd,8.0,Pink,True,Pink,Stranger,415.0,b,cercle
e6z6eb2kpd,9.0,Pink,True,Pink,Stranger,475.0,b,cercle
e6z6eb2kpd,10.0,Mathilde,True,Mathilde,Friend,504.0,n,carré
e6z6eb2kpd,11.0,Vous,True,Vous,Self,494.0,v,triangle
e6z6eb2kpd,12.0,Mathilde,True,Mathilde,Friend,521.0,n,carré
e6z6eb2kpd,13.0,Mathilde,True,Mathilde,Friend,369.0,n,carré
e6z6eb2kpd,14.0,Mathilde,True,Mathilde,Friend,324.0,n,carré
e6z6eb2kpd,15.0,Pink,True,Pink,Stranger,530.0,b,cercle
e6z6eb2kpd,16.0,Mathilde,True,Mathilde,Friend,525.0,n,carré
e6z6eb2kpd,17.0,Vous,True,Vous,Self,411.0,v,triangle
e6z6eb2kpd,18.0,Pink,True,Pink,Stranger,469.0,b,cercle
e6z6eb2kpd,19.0,Mathilde,True,Mathilde,Friend,500.0,n,carré
ou7w96lx3a,1.0,,False,Nassima,Friend,,,triangle
ou7w96lx3a,2.0,,False,Nassima,Friend,,,triangle
ou7w96lx3a,3.0,Vous,True,Vous,Self,3780.0,v,carré
ou7w96lx3a,4.0,Vous,True,Vous,Self,2629.0,v,carré
ou7w96lx3a,5.0,Vous,True,Vous,Self,2738.0,v,carré
ou7w96lx3a,6.0,Vous,True,Vous,Self,1204.0,v,carré
ou7w96lx3a,7.0,Nassima,True,Nassima,Friend,2185.0,n,triangle
ou7w96lx3a,8.0,Vous,True,Vous,Self,1248.0,v,carré
ou7w96lx3a,9.0,Vous,True,Vous,Self,1360.0,v,carré
ou7w96lx3a,10.0,Madonna,True,Madonna,Stranger,1841.0,b,cercle
ou7w96lx3a,11.0,Nassima,True,Nassima,Friend,923.0,n,triangle
ou7w96lx3a,12.0,Madonna,True,Madonna,Stranger,1209.0,b,cercle
ou7w96lx3a,13.0,Nassima,True,Nassima,Friend,1302.0,n,triangle
ou7w96lx3a,14.0,Vous,True,Vous,Self,755.0,v,carré
ou7w96lx3a,15.0,Nassima,True,Nassima,Friend,955.0,n,triangle
ou7w96lx3a,16.0,Vous,True,Vous,Self,739.0,v,carré
ou7w96lx3a,17.0,Vous,True,Vous,Self,1195.0,v,carré
ou7w96lx3a,18.0,Madonna,True,Madonna,Stranger,1492.0,b,cercle
ou7w96lx3a,19.0,Vous,True,Vous,Self,761.0,v,carré
ou7w96lx3a,20.0,Vous,True,Vous,Self,985.0,v,carré
ou7w96lx3a,21.0,Nassima,True,Nassima,Friend,946.0,n,triangle
25d19lf049,1.0,,False,Arthur,Friend,,,triangle
25d19lf049,2.0,Arthur,True,Arthur,Friend,4807.0,n,triangle
25d19lf049,3.0,Vous,True,Vous,Self,1205.0,v,carré
25d19lf049,4.0,Sting,True,Sting,Stranger,602.0,b,cercle
25d19lf049,5.0,Sting,True,Sting,Stranger,1027.0,b,cercle
25d19lf049,6.0,Arthur,True,Arthur,Friend,713.0,n,triangle
25d19lf049,7.0,Arthur,True,Arthur,Friend,1042.0,n,triangle
25d19lf049,8.0,Arthur,True,Arthur,Friend,846.0,n,triangle
25d19lf049,9.0,Sting,True,Sting,Stranger,2299.0,b,cercle
25d19lf049,10.0,Vous,True,Vous,Self,1040.0,v,carré
25d19lf049,11.0,Arthur,True,Arthur,Friend,1455.0,n,triangle
25d19lf049,12.0,Arthur,True,Arthur,Friend,774.0,n,triangle
25d19lf049,13.0,Vous,True,Vous,Self,1300.0,v,carré
25d19lf049,14.0,Sting,True,Sting,Stranger,845.0,b,cercle
25d19lf049,15.0,Sting,True,Sting,Stranger,709.0,b,cercle
25d19lf049,16.0,Vous,True,Vous,Self,615.0,v,carré
25d19lf049,17.0,Sting,True,Sting,Stranger,1104.0,b,cercle
25d19lf049,18.0,Sting,True,Sting,Stranger,519.0,b,cercle
25d19lf049,19.0,Vous,True,Vous,Self,774.0,v,carré
25d19lf049,20.0,Sting,True,Sting,Stranger,612.0,b,cercle
lcjj9t6ol1,1.0,Madonna,True,Madonna,Stranger,4687.0,b,triangle
lcjj9t6ol1,2.0,Madonna,True,Madonna,Stranger,2373.0,b,triangle
lcjj9t6ol1,3.0,You,True,You,Self,1436.0,v,square
lcjj9t6ol1,4.0,You,True,You,Self,2002.0,v,square
lcjj9t6ol1,5.0,You,True,You,Self,1367.0,v,square
lcjj9t6ol1,6.0,You,True,You,Self,1056.0,v,square
lcjj9t6ol1,7.0,You,True,You,Self,697.0,v,square
lcjj9t6ol1,8.0,Kicia,True,Kicia,Friend,2017.0,n,circle
lcjj9t6ol1,9.0,Madonna,True,Madonna,Stranger,1849.0,b,triangle
lcjj9t6ol1,10.0,You,True,You,Self,896.0,v,square
lcjj9t6ol1,11.0,Madonna,True,Madonna,Stranger,1934.0,b,triangle
lcjj9t6ol1,12.0,Kicia,True,Kicia,Friend,1227.0,n,circle
lcjj9t6ol1,13.0,Madonna,True,Madonna,Stranger,1913.0,b,triangle
lcjj9t6ol1,14.0,Kicia,True,Kicia,Friend,1387.0,n,circle
lcjj9t6ol1,15.0,You,True,You,Self,671.0,v,square
lcjj9t6ol1,16.0,Madonna,True,Madonna,Stranger,920.0,b,triangle
lcjj9t6ol1,17.0,Kicia,True,Kicia,Friend,723.0,n,circle
lcjj9t6ol1,18.0,Madonna,True,Madonna,Stranger,1107.0,b,triangle
lcjj9t6ol1,19.0,Madonna,True,Madonna,Stranger,893.0,b,triangle
oylurcca9r,1.0,,False,Vous,Self,,,cercle
oylurcca9r,2.0,Vous,True,Vous,Self,3238.0,v,cercle
oylurcca9r,3.0,Laura,True,Laura,Friend,3896.0,n,triangle
oylurcca9r,4.0,Pink,True,Pink,Stranger,2379.0,b,carré
oylurcca9r,5.0,Vous,True,Vous,Self,1864.0,v,cercle
oylurcca9r,6.0,Pink,True,Pink,Stranger,1947.0,b,carré
oylurcca9r,7.0,Vous,True,Vous,Self,2408.0,v,cercle
oylurcca9r,8.0,Pink,True,Pink,Stranger,2460.0,b,carré
oylurcca9r,9.0,Vous,True,Vous,Self,1479.0,v,cercle
oylurcca9r,10.0,Vous,True,Vous,Self,1369.0,v,cercle
oylurcca9r,11.0,Laura,True,Laura,Friend,2348.0,n,triangle
oylurcca9r,12.0,Pink,True,Pink,Stranger,1298.0,b,carré
oylurcca9r,13.0,Laura,True,Laura,Friend,1272.0,n,triangle
oylurcca9r,14.0,Laura,True,Laura,Friend,3188.0,n,triangle
oylurcca9r,15.0,Pink,True,Pink,Stranger,1726.0,b,carré
oylurcca9r,16.0,Pink,True,Pink,Stranger,1147.0,b,carré
oylurcca9r,17.0,Vous,True,Vous,Self,1289.0,v,cercle
oylurcca9r,18.0,Vous,True,Vous,Self,1604.0,v,cercle
oylurcca9r,19.0,Laura,True,Laura,Friend,1298.0,n,triangle
oylurcca9r,20.0,Pink,True,Pink,Stranger,2175.0,b,carré
zq8qgldhle,1.0,You,True,You,Self,4535.0,v,circle
zq8qgldhle,2.0,Elvis,True,Elvis,Stranger,1547.0,b,square
zq8qgldhle,3.0,Elvis,True,Elvis,Stranger,1183.0,b,square
zq8qgldhle,4.0,You,True,You,Self,1923.0,v,circle
zq8qgldhle,5.0,Lina,True,Lina,Friend,784.0,n,triangle
zq8qgldhle,6.0,Lina,True,Lina,Friend,735.0,n,triangle
zq8qgldhle,7.0,Elvis,True,Elvis,Stranger,794.0,b,square
zq8qgldhle,8.0,Lina,True,Lina,Friend,2033.0,n,triangle
zq8qgldhle,9.0,Elvis,True,Elvis,Stranger,1091.0,b,square
zq8qgldhle,10.0,Elvis,True,Elvis,Stranger,1839.0,b,square
zq8qgldhle,11.0,You,True,You,Self,879.0,v,circle
zq8qgldhle,12.0,You,True,You,Self,639.0,v,circle
zq8qgldhle,13.0,Lina,True,Lina,Friend,923.0,n,triangle
zq8qgldhle,14.0,Lina,True,Lina,Friend,1121.0,n,triangle
zq8qgldhle,15.0,Elvis,True,Elvis,Stranger,751.0,b,square
zq8qgldhle,16.0,You,True,You,Self,580.0,v,circle
zq8qgldhle,17.0,Lina,True,Lina,Friend,707.0,n,triangle
zq8qgldhle,18.0,Elvis,True,Elvis,Stranger,785.0,b,square
zq8qgldhle,19.0,Lina,True,Lina,Friend,812.0,n,triangle
0b5v1g2tqp,1.0,,False,You,Self,,,triangle
0b5v1g2tqp,2.0,You,False,David,Friend,3002.0,v,square
0b5v1g2tqp,3.0,You,True,You,Self,3237.0,v,triangle
0b5v1g2tqp,4.0,You,True,You,Self,1068.0,v,triangle
0b5v1g2tqp,5.0,David,True,David,Friend,2460.0,n,square
0b5v1g2tqp,6.0,You,True,You,Self,1224.0,v,triangle
0b5v1g2tqp,7.0,Seal,True,Seal,Stranger,729.0,b,circle
0b5v1g2tqp,8.0,Seal,True,Seal,Stranger,728.0,b,circle
0b5v1g2tqp,9.0,You,True,You,Self,1943.0,v,triangle
0b5v1g2tqp,10.0,Seal,True,Seal,Stranger,830.0,b,circle
0b5v1g2tqp,11.0,Seal,True,Seal,Stranger,784.0,b,circle
0b5v1g2tqp,12.0,Seal,True,Seal,Stranger,594.0,b,circle
0b5v1g2tqp,13.0,David,True,David,Friend,965.0,n,square
0b5v1g2tqp,14.0,You,True,You,Self,661.0,v,triangle
0b5v1g2tqp,15.0,David,True,David,Friend,875.0,n,square
0b5v1g2tqp,16.0,You,True,You,Self,696.0,v,triangle
0b5v1g2tqp,17.0,Seal,True,Seal,Stranger,640.0,b,circle
0b5v1g2tqp,18.0,You,True,You,Self,987.0,v,triangle
0b5v1g2tqp,19.0,You,True,You,Self,708.0,v,triangle
0b5v1g2tqp,20.0,David,True,David,Friend,989.0,n,square
0b5v1g2tqp,21.0,Seal,True,Seal,Stranger,776.0,b,circle
2ar665k8ys,1.0,Vous,True,Vous,Self,2750.0,v,cercle
2ar665k8ys,2.0,Aélia,True,Aélia,Friend,1444.0,n,carré
2ar665k8ys,3.0,Aélia,True,Aélia,Friend,652.0,n,carré
2ar665k8ys,4.0,Vous,True,Vous,Self,800.0,v,cercle
2ar665k8ys,5.0,Aélia,True,Aélia,Friend,816.0,n,carré
2ar665k8ys,6.0,Vous,True,Vous,Self,576.0,v,cercle
2ar665k8ys,7.0,Rihanna,True,Rihanna,Stranger,459.0,b,triangle
2ar665k8ys,8.0,Aélia,True,Aélia,Friend,500.0,n,carré
2ar665k8ys,9.0,Vous,True,Vous,Self,668.0,v,cercle
2ar665k8ys,10.0,Vous,True,Vous,Self,968.0,v,cercle
2ar665k8ys,11.0,Rihanna,True,Rihanna,Stranger,1737.0,b,triangle
2ar665k8ys,12.0,Aélia,True,Aélia,Friend,652.0,n,carré
2ar665k8ys,13.0,Vous,True,Vous,Self,532.0,v,cercle
2ar665k8ys,14.0,Vous,True,Vous,Self,728.0,v,cercle
2ar665k8ys,15.0,Aélia,True,Aélia,Friend,653.0,n,carré
2ar665k8ys,16.0,Rihanna,False,Vous,Self,515.0,b,cercle
2ar665k8ys,17.0,Vous,True,Vous,Self,470.0,v,cercle
2ar665k8ys,18.0,Vous,True,Vous,Self,517.0,v,cercle
2ar665k8ys,19.0,Rihanna,True,Rihanna,Stranger,625.0,b,triangle
2ar665k8ys,20.0,Vous,True,Vous,Self,609.0,v,cercle
2ar665k8ys,21.0,Rihanna,True,Rihanna,Stranger,418.0,b,triangle
2ar665k8ys,22.0,Vous,True,Vous,Self,624.0,v,cercle
2ar665k8ys,23.0,Vous,False,Rihanna,Stranger,674.0,v,triangle
2ar665k8ys,24.0,Rihanna,False,Aélia,Friend,265.0,b,carré
2ar665k8ys,25.0,Rihanna,True,Rihanna,Stranger,608.0,b,triangle
2ar665k8ys,26.0,Aélia,True,Aélia,Friend,564.0,n,carré
2ar665k8ys,27.0,Aélia,True,Aélia,Friend,557.0,n,carré
2ar665k8ys,28.0,Vous,True,Vous,Self,615.0,v,cercle
2ar665k8ys,29.0,Rihanna,True,Rihanna,Stranger,587.0,b,triangle
2ar665k8ys,30.0,Aélia,True,Aélia,Friend,522.0,n,carré
2ar665k8ys,31.0,Vous,True,Vous,Self,554.0,v,cercle
2ar665k8ys,32.0,Vous,True,Vous,Self,525.0,v,cercle
2ar665k8ys,33.0,Rihanna,True,Rihanna,Stranger,876.0,b,triangle
2ar665k8ys,34.0,Aélia,True,Aélia,Friend,552.0,n,carré
2ar665k8ys,35.0,Rihanna,True,Rihanna,Stranger,915.0,b,triangle
2ar665k8ys,36.0,Vous,True,Vous,Self,572.0,v,cercle
2ar665k8ys,37.0,Vous,True,Vous,Self,505.0,v,cercle
2ar665k8ys,38.0,Aélia,True,Aélia,Friend,568.0,n,carré
2ar665k8ys,39.0,Aélia,True,Aélia,Friend,516.0,n,carré
2ar665k8ys,40.0,Vous,True,Vous,Self,591.0,v,cercle
2ar665k8ys,41.0,Vous,True,Vous,Self,418.0,v,cercle
2ar665k8ys,42.0,Aélia,True,Aélia,Friend,597.0,n,carré
2ar665k8ys,43.0,Vous,True,Vous,Self,640.0,v,cercle
b4ofqgosoy,1.0,,False,Seal,Stranger,,,triangle
b4ofqgosoy,2.0,You,False,RoJa,Friend,5934.0,v,circle
b4ofqgosoy,3.0,Seal,False,RoJa,Friend,1904.0,b,circle
b4ofqgosoy,4.0,RoJa,True,RoJa,Friend,1753.0,n,circle
b4ofqgosoy,5.0,RoJa,True,RoJa,Friend,1982.0,n,circle
b4ofqgosoy,6.0,Seal,True,Seal,Stranger,1605.0,b,triangle
b4ofqgosoy,7.0,You,True,You,Self,464.0,v,square
b4ofqgosoy,8.0,RoJa,True,RoJa,Friend,966.0,n,circle
b4ofqgosoy,9.0,RoJa,True,RoJa,Friend,857.0,n,circle
b4ofqgosoy,10.0,You,True,You,Self,1072.0,v,square
b4ofqgosoy,11.0,Seal,True,Seal,Stranger,735.0,b,triangle
b4ofqgosoy,12.0,RoJa,True,RoJa,Friend,736.0,n,circle
b4ofqgosoy,13.0,Seal,True,Seal,Stranger,532.0,b,triangle
b4ofqgosoy,14.0,Seal,True,Seal,Stranger,623.0,b,triangle
b4ofqgosoy,15.0,You,True,You,Self,591.0,v,square
b4ofqgosoy,16.0,RoJa,True,RoJa,Friend,683.0,n,circle
b4ofqgosoy,17.0,You,True,You,Self,671.0,v,square
b4ofqgosoy,18.0,Seal,True,Seal,Stranger,765.0,b,triangle
b4ofqgosoy,19.0,You,True,You,Self,693.0,v,square
b4ofqgosoy,20.0,You,True,You,Self,547.0,v,square
b4ofqgosoy,21.0,RoJa,True,RoJa,Friend,766.0,n,circle
b4ofqgosoy,22.0,Seal,True,Seal,Stranger,767.0,b,triangle
rsb00fd6jx,1.0,Vous,True,Vous,Self,4181.0,v,cercle
rsb00fd6jx,2.0,Elvis,True,Elvis,Stranger,2514.0,b,carré
rsb00fd6jx,3.0,Elvis,True,Elvis,Stranger,2231.0,b,carré
rsb00fd6jx,4.0,Elvis,True,Elvis,Stranger,1237.0,b,carré
rsb00fd6jx,5.0,Julien,True,Julien,Friend,1339.0,n,triangle
rsb00fd6jx,6.0,Julien,True,Julien,Friend,1028.0,n,triangle
rsb00fd6jx,7.0,Elvis,True,Elvis,Stranger,1989.0,b,carré
rsb00fd6jx,8.0,Julien,True,Julien,Friend,1085.0,n,triangle
rsb00fd6jx,9.0,Julien,True,Julien,Friend,1008.0,n,triangle
rsb00fd6jx,10.0,Julien,True,Julien,Friend,640.0,n,triangle
rsb00fd6jx,11.0,Julien,True,Julien,Friend,3624.0,n,triangle
rsb00fd6jx,12.0,Vous,True,Vous,Self,792.0,v,cercle
rsb00fd6jx,13.0,Elvis,True,Elvis,Stranger,996.0,b,carré
rsb00fd6jx,14.0,Elvis,True,Elvis,Stranger,1716.0,b,carré
rsb00fd6jx,15.0,Julien,True,Julien,Friend,582.0,n,triangle
rsb00fd6jx,16.0,Elvis,True,Elvis,Stranger,1292.0,b,carré
rsb00fd6jx,17.0,Elvis,True,Elvis,Stranger,740.0,b,carré
rsb00fd6jx,18.0,Julien,True,Julien,Friend,1598.0,n,triangle
rsb00fd6jx,19.0,Elvis,True,Elvis,Stranger,1101.0,b,carré
3hheyrlbx2,1.0,,False,Eminem,Stranger,,,carré
3hheyrlbx2,2.0,Nicolas,True,Nicolas,Friend,3324.0,n,cercle
3hheyrlbx2,3.0,Eminem,True,Eminem,Stranger,3602.0,b,carré
3hheyrlbx2,4.0,Vous,True,Vous,Self,1912.0,v,triangle
3hheyrlbx2,5.0,Eminem,True,Eminem,Stranger,1756.0,b,carré
3hheyrlbx2,6.0,Eminem,True,Eminem,Stranger,2062.0,b,carré
3hheyrlbx2,7.0,Eminem,True,Eminem,Stranger,919.0,b,carré
3hheyrlbx2,8.0,Nicolas,True,Nicolas,Friend,1256.0,n,cercle
3hheyrlbx2,9.0,Nicolas,True,Nicolas,Friend,1897.0,n,cercle
3hheyrlbx2,10.0,Nicolas,True,Nicolas,Friend,1030.0,n,cercle
3hheyrlbx2,11.0,Vous,True,Vous,Self,940.0,v,triangle
3hheyrlbx2,12.0,Eminem,True,Eminem,Stranger,534.0,b,carré
3hheyrlbx2,13.0,Vous,True,Vous,Self,1221.0,v,triangle
3hheyrlbx2,14.0,Vous,True,Vous,Self,625.0,v,triangle
3hheyrlbx2,15.0,Eminem,True,Eminem,Stranger,877.0,b,carré
3hheyrlbx2,16.0,Vous,True,Vous,Self,1190.0,v,triangle
3hheyrlbx2,17.0,Vous,True,Vous,Self,1088.0,v,triangle
3hheyrlbx2,18.0,Eminem,True,Eminem,Stranger,1866.0,b,carré
3hheyrlbx2,19.0,Nicolas,True,Nicolas,Friend,546.0,n,cercle
3hheyrlbx2,20.0,Eminem,True,Eminem,Stranger,541.0,b,carré
6egq8dyp8w,1.0,,False,Vous,Self,,,carré
6egq8dyp8w,2.0,Sting,False,manu,Friend,4778.0,b,cercle
6egq8dyp8w,3.0,,False,manu,Friend,,,cercle
6egq8dyp8w,4.0,Vous,False,Sting,Stranger,5486.0,v,triangle
6egq8dyp8w,5.0,manu,True,manu,Friend,551.0,n,cercle
6egq8dyp8w,6.0,Sting,True,Sting,Stranger,3993.0,b,triangle
6egq8dyp8w,7.0,Sting,True,Sting,Stranger,1784.0,b,triangle
6egq8dyp8w,8.0,manu,True,manu,Friend,1755.0,n,cercle
6egq8dyp8w,9.0,Sting,True,Sting,Stranger,835.0,b,triangle
6egq8dyp8w,10.0,Vous,True,Vous,Self,1152.0,v,carré
6egq8dyp8w,11.0,Vous,True,Vous,Self,1486.0,v,carré
6egq8dyp8w,12.0,Sting,True,Sting,Stranger,969.0,b,triangle
6egq8dyp8w,13.0,Sting,True,Sting,Stranger,1184.0,b,triangle
6egq8dyp8w,14.0,manu,True,manu,Friend,1154.0,n,cercle
6egq8dyp8w,15.0,Sting,False,manu,Friend,716.0,b,cercle
6egq8dyp8w,16.0,manu,True,manu,Friend,1924.0,n,cercle
6egq8dyp8w,17.0,Sting,True,Sting,Stranger,962.0,b,triangle
6egq8dyp8w,18.0,manu,True,manu,Friend,1345.0,n,cercle
6egq8dyp8w,19.0,Sting,False,Vous,Self,1348.0,b,carré
6egq8dyp8w,20.0,Sting,True,Sting,Stranger,1006.0,b,triangle
6egq8dyp8w,21.0,Vous,True,Vous,Self,578.0,v,carré
6egq8dyp8w,22.0,manu,True,manu,Friend,1304.0,n,cercle
6egq8dyp8w,23.0,Vous,True,Vous,Self,1176.0,v,carré
6egq8dyp8w,24.0,Sting,True,Sting,Stranger,881.0,b,triangle
6egq8dyp8w,25.0,Sting,True,Sting,Stranger,730.0,b,triangle
6egq8dyp8w,26.0,Sting,True,Sting,Stranger,587.0,b,triangle
6egq8dyp8w,27.0,Vous,True,Vous,Self,1195.0,v,carré
6egq8dyp8w,28.0,Sting,True,Sting,Stranger,643.0,b,triangle
6egq8dyp8w,29.0,Sting,True,Sting,Stranger,786.0,b,triangle
6egq8dyp8w,30.0,manu,True,manu,Friend,561.0,n,cercle
6egq8dyp8w,31.0,Sting,True,Sting,Stranger,476.0,b,triangle
6egq8dyp8w,32.0,Sting,True,Sting,Stranger,818.0,b,triangle
6egq8dyp8w,33.0,Vous,True,Vous,Self,850.0,v,carré
6egq8dyp8w,34.0,manu,True,manu,Friend,1023.0,n,cercle
6egq8dyp8w,35.0,manu,True,manu,Friend,775.0,n,cercle
6egq8dyp8w,36.0,Vous,True,Vous,Self,979.0,v,carré
6egq8dyp8w,37.0,Sting,True,Sting,Stranger,613.0,b,triangle
6egq8dyp8w,38.0,Vous,True,Vous,Self,1079.0,v,carré
pyfrxedsdb,1.0,,False,Vous,Self,,,triangle
pyfrxedsdb,2.0,Tanguy,True,Tanguy,Friend,3044.0,n,carré
pyfrxedsdb,3.0,Tanguy,True,Tanguy,Friend,1427.0,n,carré
pyfrxedsdb,4.0,Eminem,True,Eminem,Stranger,1327.0,b,cercle
pyfrxedsdb,5.0,Tanguy,True,Tanguy,Friend,994.0,n,carré
pyfrxedsdb,6.0,Vous,True,Vous,Self,1324.0,v,triangle
pyfrxedsdb,7.0,Tanguy,True,Tanguy,Friend,1176.0,n,carré
pyfrxedsdb,8.0,Eminem,True,Eminem,Stranger,742.0,b,cercle
pyfrxedsdb,9.0,Tanguy,True,Tanguy,Friend,694.0,n,carré
pyfrxedsdb,10.0,Eminem,False,Tanguy,Friend,771.0,b,carré
pyfrxedsdb,11.0,Tanguy,True,Tanguy,Friend,560.0,n,carré
pyfrxedsdb,12.0,Eminem,True,Eminem,Stranger,850.0,b,cercle
pyfrxedsdb,13.0,Vous,True,Vous,Self,678.0,v,triangle
pyfrxedsdb,14.0,Vous,True,Vous,Self,1097.0,v,triangle
pyfrxedsdb,15.0,Eminem,True,Eminem,Stranger,755.0,b,cercle
pyfrxedsdb,16.0,Tanguy,True,Tanguy,Friend,493.0,n,carré
pyfrxedsdb,17.0,Eminem,True,Eminem,Stranger,577.0,b,cercle
pyfrxedsdb,18.0,Eminem,True,Eminem,Stranger,951.0,b,cercle
pyfrxedsdb,19.0,Eminem,True,Eminem,Stranger,446.0,b,cercle
pyfrxedsdb,20.0,Vous,True,Vous,Self,548.0,v,triangle
pyfrxedsdb,21.0,Vous,True,Vous,Self,591.0,v,triangle
pyfrxedsdb,22.0,Tanguy,True,Tanguy,Friend,552.0,n,carré
pyfrxedsdb,23.0,Tanguy,True,Tanguy,Friend,590.0,n,carré
pyfrxedsdb,24.0,Eminem,True,Eminem,Stranger,437.0,b,cercle
pyfrxedsdb,25.0,Eminem,True,Eminem,Stranger,683.0,b,cercle
pyfrxedsdb,26.0,Vous,True,Vous,Self,566.0,v,triangle
pyfrxedsdb,27.0,Eminem,True,Eminem,Stranger,664.0,b,cercle
pyfrxedsdb,28.0,Tanguy,True,Tanguy,Friend,725.0,n,carré
pyfrxedsdb,29.0,Eminem,True,Eminem,Stranger,548.0,b,cercle
0kavn59kab,1.0,,False,Madonna,Stranger,,,carré
0kavn59kab,2.0,Madonna,False,Louisiane,Friend,3077.0,b,cercle
0kavn59kab,3.0,Louisiane,True,Louisiane,Friend,2047.0,n,cercle
0kavn59kab,4.0,Louisiane,True,Louisiane,Friend,2704.0,n,cercle
0kavn59kab,5.0,Louisiane,True,Louisiane,Friend,1582.0,n,cercle
0kavn59kab,6.0,Louisiane,True,Louisiane,Friend,1700.0,n,cercle
0kavn59kab,7.0,Louisiane,True,Louisiane,Friend,1579.0,n,cercle
0kavn59kab,8.0,Vous,True,Vous,Self,2550.0,v,triangle
0kavn59kab,9.0,Louisiane,True,Louisiane,Friend,2366.0,n,cercle
0kavn59kab,10.0,Louisiane,True,Louisiane,Friend,1605.0,n,cercle
0kavn59kab,11.0,Louisiane,True,Louisiane,Friend,1587.0,n,cercle
0kavn59kab,12.0,Louisiane,True,Louisiane,Friend,1488.0,n,cercle
0kavn59kab,13.0,Vous,True,Vous,Self,1452.0,v,triangle
0kavn59kab,14.0,Louisiane,True,Louisiane,Friend,1351.0,n,cercle
0kavn59kab,15.0,Vous,True,Vous,Self,1476.0,v,triangle
0kavn59kab,16.0,Louisiane,True,Louisiane,Friend,1178.0,n,cercle
0kavn59kab,17.0,Madonna,True,Madonna,Stranger,1566.0,b,carré
0kavn59kab,18.0,Louisiane,True,Louisiane,Friend,1150.0,n,cercle
0kavn59kab,19.0,Madonna,True,Madonna,Stranger,2284.0,b,carré
0kavn59kab,20.0,Louisiane,True,Louisiane,Friend,1475.0,n,cercle
0kavn59kab,21.0,Madonna,True,Madonna,Stranger,1012.0,b,carré
pd9polz932,1.0,Sting,True,Sting,Stranger,2847.0,b,cercle
pd9polz932,2.0,Sting,True,Sting,Stranger,2865.0,b,cercle
pd9polz932,3.0,Sting,True,Sting,Stranger,761.0,b,cercle
pd9polz932,4.0,Vous,True,Vous,Self,843.0,v,triangle
pd9polz932,5.0,Jojo,True,Jojo,Friend,984.0,n,carré
pd9polz932,6.0,Sting,True,Sting,Stranger,821.0,b,cercle
pd9polz932,7.0,Vous,True,Vous,Self,809.0,v,triangle
pd9polz932,8.0,Jojo,True,Jojo,Friend,1114.0,n,carré
pd9polz932,9.0,Jojo,True,Jojo,Friend,640.0,n,carré
pd9polz932,10.0,Vous,True,Vous,Self,746.0,v,triangle
pd9polz932,11.0,Vous,True,Vous,Self,520.0,v,triangle
pd9polz932,12.0,Sting,True,Sting,Stranger,368.0,b,cercle
pd9polz932,13.0,Vous,False,Jojo,Friend,582.0,v,carré
pd9polz932,14.0,Jojo,True,Jojo,Friend,1071.0,n,carré
pd9polz932,15.0,Sting,True,Sting,Stranger,1072.0,b,cercle
pd9polz932,16.0,Jojo,True,Jojo,Friend,999.0,n,carré
pd9polz932,17.0,Jojo,True,Jojo,Friend,353.0,n,carré
pd9polz932,18.0,Jojo,True,Jojo,Friend,336.0,n,carré
pd9polz932,19.0,Vous,True,Vous,Self,407.0,v,triangle
pd9polz932,20.0,Sting,True,Sting,Stranger,346.0,b,cercle
pd9polz932,21.0,Sting,True,Sting,Stranger,308.0,b,cercle
pd9polz932,22.0,Vous,True,Vous,Self,758.0,v,triangle
pd9polz932,23.0,Vous,True,Vous,Self,441.0,v,triangle
pd9polz932,24.0,Vous,True,Vous,Self,411.0,v,triangle
pd9polz932,25.0,Vous,True,Vous,Self,371.0,v,triangle
pd9polz932,26.0,Jojo,True,Jojo,Friend,373.0,n,carré
pd9polz932,27.0,Vous,True,Vous,Self,443.0,v,triangle
pd9polz932,28.0,Sting,True,Sting,Stranger,332.0,b,cercle
pd9polz932,29.0,Sting,True,Sting,Stranger,299.0,b,cercle
pd9polz932,30.0,Vous,True,Vous,Self,1031.0,v,triangle
pd9polz932,31.0,Sting,True,Sting,Stranger,566.0,b,cercle
pd9polz932,32.0,Jojo,True,Jojo,Friend,485.0,n,carré
xmhqsz55n3,1.0,,False,Vous,Self,,,carré
xmhqsz55n3,2.0,Vous,True,Vous,Self,2043.0,v,carré
xmhqsz55n3,3.0,Vous,True,Vous,Self,1190.0,v,carré
xmhqsz55n3,4.0,Vous,True,Vous,Self,753.0,v,carré
xmhqsz55n3,5.0,Elvis,True,Elvis,Stranger,1871.0,b,triangle
xmhqsz55n3,6.0,Elvis,True,Elvis,Stranger,812.0,b,triangle
xmhqsz55n3,7.0,Matthias,True,Matthias,Friend,646.0,n,cercle
xmhqsz55n3,8.0,Vous,True,Vous,Self,765.0,v,carré
xmhqsz55n3,9.0,Matthias,True,Matthias,Friend,1079.0,n,cercle
xmhqsz55n3,10.0,Elvis,True,Elvis,Stranger,982.0,b,triangle
xmhqsz55n3,11.0,Matthias,True,Matthias,Friend,645.0,n,cercle
xmhqsz55n3,12.0,Elvis,True,Elvis,Stranger,460.0,b,triangle
xmhqsz55n3,13.0,Vous,True,Vous,Self,697.0,v,carré
xmhqsz55n3,14.0,Elvis,True,Elvis,Stranger,576.0,b,triangle
xmhqsz55n3,15.0,Matthias,False,Vous,Self,474.0,n,carré
xmhqsz55n3,16.0,Vous,True,Vous,Self,563.0,v,carré
xmhqsz55n3,17.0,Elvis,True,Elvis,Stranger,730.0,b,triangle
xmhqsz55n3,18.0,Vous,True,Vous,Self,579.0,v,carré
xmhqsz55n3,19.0,Elvis,True,Elvis,Stranger,674.0,b,triangle
xmhqsz55n3,20.0,Vous,True,Vous,Self,532.0,v,carré
xmhqsz55n3,21.0,Elvis,True,Elvis,Stranger,422.0,b,triangle
xmhqsz55n3,22.0,Elvis,True,Elvis,Stranger,529.0,b,triangle
xmhqsz55n3,23.0,Vous,True,Vous,Self,409.0,v,carré
xmhqsz55n3,24.0,Vous,True,Vous,Self,736.0,v,carré
xmhqsz55n3,25.0,Matthias,True,Matthias,Friend,412.0,n,cercle
xmhqsz55n3,26.0,Matthias,True,Matthias,Friend,607.0,n,cercle
xmhqsz55n3,27.0,Vous,True,Vous,Self,914.0,v,carré
xmhqsz55n3,28.0,Elvis,True,Elvis,Stranger,390.0,b,triangle
xmhqsz55n3,29.0,Matthias,True,Matthias,Friend,542.0,n,cercle
xmhqsz55n3,30.0,Matthias,True,Matthias,Friend,452.0,n,cercle
xmhqsz55n3,31.0,Vous,True,Vous,Self,436.0,v,carré
xmhqsz55n3,32.0,Elvis,True,Elvis,Stranger,355.0,b,triangle
xmhqsz55n3,33.0,Matthias,True,Matthias,Friend,472.0,n,cercle
xmhqsz55n3,34.0,Matthias,True,Matthias,Friend,514.0,n,cercle
21pxz8n9fj,1.0,,False,Anais,Friend,,,carré
21pxz8n9fj,2.0,Anais,True,Anais,Friend,1349.0,n,carré
21pxz8n9fj,3.0,Anais,True,Anais,Friend,1132.0,n,carré
21pxz8n9fj,4.0,Anais,True,Anais,Friend,770.0,n,carré
21pxz8n9fj,5.0,Vous,True,Vous,Self,1273.0,v,triangle
21pxz8n9fj,6.0,Anais,True,Anais,Friend,1188.0,n,carré
21pxz8n9fj,7.0,Anais,True,Anais,Friend,606.0,n,carré
21pxz8n9fj,8.0,Beyonce,True,Beyonce,Stranger,728.0,b,cercle
21pxz8n9fj,9.0,Beyonce,True,Beyonce,Stranger,733.0,b,cercle
21pxz8n9fj,10.0,Beyonce,True,Beyonce,Stranger,839.0,b,cercle
21pxz8n9fj,11.0,Vous,True,Vous,Self,748.0,v,triangle
21pxz8n9fj,12.0,Anais,True,Anais,Friend,764.0,n,carré
21pxz8n9fj,13.0,Anais,True,Anais,Friend,643.0,n,carré
21pxz8n9fj,14.0,Beyonce,True,Beyonce,Stranger,1625.0,b,cercle
21pxz8n9fj,15.0,Beyonce,True,Beyonce,Stranger,560.0,b,cercle
21pxz8n9fj,16.0,Vous,True,Vous,Self,1018.0,v,triangle
21pxz8n9fj,17.0,Beyonce,True,Beyonce,Stranger,741.0,b,cercle
21pxz8n9fj,18.0,Beyonce,True,Beyonce,Stranger,658.0,b,cercle
21pxz8n9fj,19.0,Vous,True,Vous,Self,735.0,v,triangle
21pxz8n9fj,20.0,Beyonce,True,Beyonce,Stranger,797.0,b,cercle
59q0majt2c,1.0,Pink,True,Pink,Stranger,1165.0,b,carré
59q0majt2c,2.0,Aline,True,Aline,Friend,993.0,n,triangle
59q0majt2c,3.0,Vous,True,Vous,Self,675.0,v,cercle
59q0majt2c,4.0,Pink,True,Pink,Stranger,694.0,b,carré
59q0majt2c,5.0,Aline,True,Aline,Friend,443.0,n,triangle
59q0majt2c,6.0,Vous,True,Vous,Self,414.0,v,cercle
59q0majt2c,7.0,Pink,True,Pink,Stranger,655.0,b,carré
59q0majt2c,8.0,Pink,True,Pink,Stranger,449.0,b,carré
59q0majt2c,9.0,Vous,True,Vous,Self,641.0,v,cercle
59q0majt2c,10.0,Aline,True,Aline,Friend,1159.0,n,triangle
59q0majt2c,11.0,Vous,False,Pink,Stranger,2271.0,v,carré
59q0majt2c,12.0,Pink,False,Vous,Self,1078.0,b,cercle
59q0majt2c,13.0,Aline,True,Aline,Friend,838.0,n,triangle
59q0majt2c,14.0,Pink,True,Pink,Stranger,828.0,b,carré
59q0majt2c,15.0,Pink,True,Pink,Stranger,481.0,b,carré
59q0majt2c,16.0,Vous,True,Vous,Self,514.0,v,cercle
59q0majt2c,17.0,Vous,True,Vous,Self,431.0,v,cercle
59q0majt2c,18.0,Aline,True,Aline,Friend,578.0,n,triangle
59q0majt2c,19.0,Pink,True,Pink,Stranger,682.0,b,carré
59q0majt2c,20.0,Vous,True,Vous,Self,761.0,v,cercle
59q0majt2c,21.0,Aline,True,Aline,Friend,639.0,n,triangle
59q0majt2c,22.0,Vous,True,Vous,Self,569.0,v,cercle
59q0majt2c,23.0,Vous,True,Vous,Self,417.0,v,cercle
59q0majt2c,24.0,Vous,True,Vous,Self,474.0,v,cercle
59q0majt2c,25.0,Pink,True,Pink,Stranger,345.0,b,carré
59q0majt2c,26.0,Aline,True,Aline,Friend,486.0,n,triangle
59q0majt2c,27.0,Pink,True,Pink,Stranger,609.0,b,carré
59q0majt2c,28.0,Pink,True,Pink,Stranger,425.0,b,carré
59q0majt2c,29.0,Aline,True,Aline,Friend,995.0,n,triangle
59q0majt2c,30.0,Pink,True,Pink,Stranger,521.0,b,carré
59q0majt2c,31.0,Aline,True,Aline,Friend,685.0,n,triangle
9hmr1yax7u,1.0,Vous,True,Vous,Self,1656.0,v,cercle
9hmr1yax7u,2.0,Mildrède,False,Vous,Self,2366.0,n,cercle
9hmr1yax7u,3.0,Mildrède,False,Rihanna,Stranger,3059.0,n,triangle
9hmr1yax7u,4.0,Vous,True,Vous,Self,2102.0,v,cercle
9hmr1yax7u,5.0,Vous,True,Vous,Self,1323.0,v,cercle
9hmr1yax7u,6.0,Vous,True,Vous,Self,1127.0,v,cercle
9hmr1yax7u,7.0,Mildrède,False,Rihanna,Stranger,1847.0,n,triangle
9hmr1yax7u,8.0,Mildrède,True,Mildrède,Friend,1195.0,n,carré
9hmr1yax7u,9.0,Rihanna,True,Rihanna,Stranger,979.0,b,triangle
9hmr1yax7u,10.0,Vous,True,Vous,Self,834.0,v,cercle
9hmr1yax7u,11.0,Mildrède,True,Mildrède,Friend,1146.0,n,carré
9hmr1yax7u,12.0,Rihanna,True,Rihanna,Stranger,1302.0,b,triangle
9hmr1yax7u,13.0,Mildrède,True,Mildrède,Friend,951.0,n,carré
9hmr1yax7u,14.0,Mildrède,True,Mildrède,Friend,865.0,n,carré
9hmr1yax7u,15.0,Rihanna,True,Rihanna,Stranger,807.0,b,triangle
9hmr1yax7u,16.0,Mildrède,False,Rihanna,Stranger,2247.0,n,triangle
9hmr1yax7u,17.0,Rihanna,True,Rihanna,Stranger,596.0,b,triangle
9hmr1yax7u,18.0,Vous,True,Vous,Self,645.0,v,cercle
9hmr1yax7u,19.0,Rihanna,True,Rihanna,Stranger,2813.0,b,triangle
9hmr1yax7u,20.0,Vous,True,Vous,Self,996.0,v,cercle
9hmr1yax7u,21.0,Rihanna,True,Rihanna,Stranger,2550.0,b,triangle
9hmr1yax7u,22.0,Rihanna,True,Rihanna,Stranger,1373.0,b,triangle
9hmr1yax7u,23.0,Rihanna,True,Rihanna,Stranger,717.0,b,triangle
9hmr1yax7u,24.0,Mildrède,True,Mildrède,Friend,1669.0,n,carré
9hmr1yax7u,25.0,Mildrède,True,Mildrède,Friend,732.0,n,carré
9hmr1yax7u,26.0,Mildrède,True,Mildrède,Friend,880.0,n,carré
9hmr1yax7u,27.0,Vous,True,Vous,Self,621.0,v,cercle
9hmr1yax7u,28.0,Vous,True,Vous,Self,610.0,v,cercle
9hmr1yax7u,29.0,Mildrède,True,Mildrède,Friend,1304.0,n,carré
9hmr1yax7u,30.0,Vous,True,Vous,Self,624.0,v,cercle
9hmr1yax7u,31.0,Vous,True,Vous,Self,663.0,v,cercle
9hmr1yax7u,32.0,Mildrède,True,Mildrède,Friend,705.0,n,carré
9hmr1yax7u,33.0,Vous,True,Vous,Self,782.0,v,cercle
9hmr1yax7u,34.0,Rihanna,True,Rihanna,Stranger,722.0,b,triangle
9hmr1yax7u,35.0,Vous,True,Vous,Self,571.0,v,cercle
e7pbewwfq6,1.0,Vous,True,Vous,Self,1631.0,v,cercle
e7pbewwfq6,2.0,Vous,True,Vous,Self,812.0,v,cercle
e7pbewwfq6,3.0,Eminem,True,Eminem,Stranger,1455.0,b,carré
e7pbewwfq6,4.0,Matteo,True,Matteo,Friend,401.0,n,triangle
e7pbewwfq6,5.0,Eminem,True,Eminem,Stranger,588.0,b,carré
e7pbewwfq6,6.0,Matteo,True,Matteo,Friend,702.0,n,triangle
e7pbewwfq6,7.0,Matteo,True,Matteo,Friend,513.0,n,triangle
e7pbewwfq6,8.0,Eminem,True,Eminem,Stranger,555.0,b,carré
e7pbewwfq6,9.0,Eminem,True,Eminem,Stranger,535.0,b,carré
e7pbewwfq6,10.0,Eminem,True,Eminem,Stranger,799.0,b,carré
e7pbewwfq6,11.0,Matteo,True,Matteo,Friend,614.0,n,triangle
e7pbewwfq6,12.0,Eminem,True,Eminem,Stranger,729.0,b,carré
e7pbewwfq6,13.0,Eminem,True,Eminem,Stranger,612.0,b,carré
e7pbewwfq6,14.0,Vous,True,Vous,Self,857.0,v,cercle
e7pbewwfq6,15.0,Vous,True,Vous,Self,885.0,v,cercle
e7pbewwfq6,16.0,Eminem,True,Eminem,Stranger,1874.0,b,carré
e7pbewwfq6,17.0,Eminem,True,Eminem,Stranger,704.0,b,carré
e7pbewwfq6,18.0,Eminem,False,Vous,Self,716.0,b,cercle
e7pbewwfq6,19.0,Matteo,True,Matteo,Friend,1442.0,n,triangle
e7pbewwfq6,20.0,Vous,True,Vous,Self,863.0,v,cercle
e7pbewwfq6,21.0,Matteo,True,Matteo,Friend,846.0,n,triangle
e7pbewwfq6,22.0,Eminem,True,Eminem,Stranger,928.0,b,carré
e7pbewwfq6,23.0,Vous,True,Vous,Self,775.0,v,cercle
e7pbewwfq6,24.0,Vous,True,Vous,Self,664.0,v,cercle
e7pbewwfq6,25.0,Vous,True,Vous,Self,546.0,v,cercle
e7pbewwfq6,26.0,Matteo,True,Matteo,Friend,1898.0,n,triangle
e7pbewwfq6,27.0,Eminem,True,Eminem,Stranger,863.0,b,carré
e7pbewwfq6,28.0,Vous,True,Vous,Self,765.0,v,cercle
e7pbewwfq6,29.0,Matteo,True,Matteo,Friend,1160.0,n,triangle
e7pbewwfq6,30.0,Matteo,True,Matteo,Friend,1060.0,n,triangle
e7pbewwfq6,31.0,Matteo,True,Matteo,Friend,732.0,n,triangle
e7pbewwfq6,32.0,Vous,True,Vous,Self,584.0,v,cercle
e7pbewwfq6,33.0,Eminem,True,Eminem,Stranger,813.0,b,carré
e7pbewwfq6,34.0,Matteo,True,Matteo,Friend,1389.0,n,triangle
e7pbewwfq6,35.0,Matteo,True,Matteo,Friend,612.0,n,triangle
e7pbewwfq6,36.0,Vous,True,Vous,Self,686.0,v,cercle
e7pbewwfq6,37.0,Eminem,True,Eminem,Stranger,1076.0,b,carré
1xc3jgv88j,1.0,Pink,True,Pink,Stranger,2357.0,b,triangle
1xc3jgv88j,2.0,Pink,True,Pink,Stranger,3483.0,b,triangle
1xc3jgv88j,3.0,Pink,True,Pink,Stranger,1970.0,b,triangle
1xc3jgv88j,4.0,Pink,True,Pink,Stranger,1830.0,b,triangle
1xc3jgv88j,5.0,Vous,True,Vous,Self,1825.0,v,cercle
1xc3jgv88j,6.0,Pink,True,Pink,Stranger,1143.0,b,triangle
1xc3jgv88j,7.0,Vous,False,Marie ,Friend,2109.0,v,carré
1xc3jgv88j,8.0,Vous,True,Vous,Self,1494.0,v,cercle
1xc3jgv88j,9.0,Marie ,True,Marie ,Friend,1223.0,n,carré
1xc3jgv88j,10.0,Pink,True,Pink,Stranger,1607.0,b,triangle
1xc3jgv88j,11.0,Vous,False,Pink,Stranger,2133.0,v,triangle
1xc3jgv88j,12.0,Marie ,True,Marie ,Friend,1948.0,n,carré
1xc3jgv88j,13.0,Vous,True,Vous,Self,1572.0,v,cercle
1xc3jgv88j,14.0,Vous,True,Vous,Self,1564.0,v,cercle
1xc3jgv88j,15.0,Vous,True,Vous,Self,976.0,v,cercle
1xc3jgv88j,16.0,Vous,True,Vous,Self,556.0,v,cercle
1xc3jgv88j,17.0,Vous,True,Vous,Self,626.0,v,cercle
1xc3jgv88j,18.0,Marie ,True,Marie ,Friend,1351.0,n,carré
1xc3jgv88j,19.0,Vous,True,Vous,Self,1941.0,v,cercle
1xc3jgv88j,20.0,Vous,True,Vous,Self,757.0,v,cercle
1xc3jgv88j,21.0,Pink,True,Pink,Stranger,776.0,b,triangle
1xc3jgv88j,22.0,Pink,True,Pink,Stranger,645.0,b,triangle
1xc3jgv88j,23.0,Pink,True,Pink,Stranger,917.0,b,triangle
1xc3jgv88j,24.0,Vous,True,Vous,Self,1292.0,v,cercle
1xc3jgv88j,25.0,Pink,True,Pink,Stranger,1013.0,b,triangle
1xc3jgv88j,26.0,Marie ,True,Marie ,Friend,1052.0,n,carré
1xc3jgv88j,27.0,Marie ,True,Marie ,Friend,1457.0,n,carré
1xc3jgv88j,28.0,Vous,True,Vous,Self,934.0,v,cercle
1xc3jgv88j,29.0,Pink,True,Pink,Stranger,671.0,b,triangle
1xc3jgv88j,30.0,Pink,True,Pink,Stranger,740.0,b,triangle
p6nv8yhc40,1.0,Shakira,True,Shakira,Stranger,2629.0,b,square
p6nv8yhc40,2.0,You,True,You,Self,3894.0,v,triangle
p6nv8yhc40,3.0,Angeliki,True,Angeliki,Friend,925.0,n,circle
p6nv8yhc40,4.0,You,True,You,Self,1095.0,v,triangle
p6nv8yhc40,5.0,You,True,You,Self,642.0,v,triangle
p6nv8yhc40,6.0,Angeliki,True,Angeliki,Friend,720.0,n,circle
p6nv8yhc40,7.0,Angeliki,True,Angeliki,Friend,1214.0,n,circle
p6nv8yhc40,8.0,Angeliki,True,Angeliki,Friend,666.0,n,circle
p6nv8yhc40,9.0,Angeliki,True,Angeliki,Friend,588.0,n,circle
p6nv8yhc40,10.0,Angeliki,True,Angeliki,Friend,579.0,n,circle
p6nv8yhc40,11.0,Angeliki,True,Angeliki,Friend,475.0,n,circle
p6nv8yhc40,12.0,You,True,You,Self,2664.0,v,triangle
p6nv8yhc40,13.0,Angeliki,True,Angeliki,Friend,712.0,n,circle
p6nv8yhc40,14.0,You,True,You,Self,1196.0,v,triangle
p6nv8yhc40,15.0,Shakira,True,Shakira,Stranger,550.0,b,square
p6nv8yhc40,16.0,You,True,You,Self,680.0,v,triangle
p6nv8yhc40,17.0,Shakira,True,Shakira,Stranger,655.0,b,square
p6nv8yhc40,18.0,Shakira,True,Shakira,Stranger,500.0,b,square
p6nv8yhc40,19.0,Shakira,True,Shakira,Stranger,477.0,b,square
a048ghjxj2,1.0,You,True,You,Self,3352.0,v,triangle
a048ghjxj2,2.0,Sam,True,Sam,Friend,1654.0,n,square
a048ghjxj2,3.0,Shakira,True,Shakira,Stranger,958.0,b,circle
a048ghjxj2,4.0,Shakira,True,Shakira,Stranger,659.0,b,circle
a048ghjxj2,5.0,Shakira,False,Sam,Friend,694.0,b,square
a048ghjxj2,6.0,You,True,You,Self,714.0,v,triangle
a048ghjxj2,7.0,Shakira,True,Shakira,Stranger,867.0,b,circle
a048ghjxj2,8.0,Shakira,True,Shakira,Stranger,586.0,b,circle
a048ghjxj2,9.0,You,True,You,Self,649.0,v,triangle
a048ghjxj2,10.0,Sam,True,Sam,Friend,959.0,n,square
a048ghjxj2,11.0,You,True,You,Self,637.0,v,triangle
a048ghjxj2,12.0,Shakira,True,Shakira,Stranger,681.0,b,circle
a048ghjxj2,13.0,You,True,You,Self,1559.0,v,triangle
a048ghjxj2,14.0,Shakira,True,Shakira,Stranger,600.0,b,circle
a048ghjxj2,15.0,Shakira,True,Shakira,Stranger,559.0,b,circle
a048ghjxj2,16.0,Shakira,True,Shakira,Stranger,552.0,b,circle
a048ghjxj2,17.0,Shakira,True,Shakira,Stranger,505.0,b,circle
a048ghjxj2,18.0,Shakira,True,Shakira,Stranger,399.0,b,circle
a048ghjxj2,19.0,You,True,You,Self,517.0,v,triangle
a048ghjxj2,20.0,You,True,You,Self,485.0,v,triangle
a048ghjxj2,21.0,You,True,You,Self,457.0,v,triangle
a048ghjxj2,22.0,Sam,True,Sam,Friend,402.0,n,square
a048ghjxj2,23.0,Shakira,True,Shakira,Stranger,585.0,b,circle
a048ghjxj2,24.0,You,True,You,Self,689.0,v,triangle
q3tttl1f8c,1.0,,False,Vous,Self,,,cercle
q3tttl1f8c,2.0,Vous,False,Eminem,Stranger,1501.0,v,triangle
q3tttl1f8c,3.0,Eminem,True,Eminem,Stranger,2277.0,b,triangle
q3tttl1f8c,4.0,Eminem,True,Eminem,Stranger,2578.0,b,triangle
q3tttl1f8c,5.0,Eminem,True,Eminem,Stranger,1451.0,b,triangle
q3tttl1f8c,6.0,Vous,True,Vous,Self,3500.0,v,cercle
q3tttl1f8c,7.0,Vous,True,Vous,Self,2896.0,v,cercle
q3tttl1f8c,8.0,Vous,True,Vous,Self,1624.0,v,cercle
q3tttl1f8c,9.0,skinner,True,skinner,Friend,735.0,n,carré
q3tttl1f8c,10.0,skinner,True,skinner,Friend,1584.0,n,carré
q3tttl1f8c,11.0,Vous,True,Vous,Self,777.0,v,cercle
q3tttl1f8c,12.0,Vous,True,Vous,Self,654.0,v,cercle
q3tttl1f8c,13.0,skinner,True,skinner,Friend,538.0,n,carré
q3tttl1f8c,14.0,Vous,True,Vous,Self,690.0,v,cercle
q3tttl1f8c,15.0,Eminem,True,Eminem,Stranger,454.0,b,triangle
q3tttl1f8c,16.0,Vous,True,Vous,Self,1618.0,v,cercle
q3tttl1f8c,17.0,skinner,False,Eminem,Stranger,787.0,n,triangle
q3tttl1f8c,18.0,Eminem,True,Eminem,Stranger,681.0,b,triangle
q3tttl1f8c,19.0,Vous,True,Vous,Self,810.0,v,cercle
q3tttl1f8c,20.0,skinner,True,skinner,Friend,914.0,n,carré
q3tttl1f8c,21.0,Eminem,True,Eminem,Stranger,1095.0,b,triangle
q3tttl1f8c,22.0,Vous,True,Vous,Self,554.0,v,cercle
q3tttl1f8c,23.0,Vous,True,Vous,Self,769.0,v,cercle
q3tttl1f8c,24.0,skinner,True,skinner,Friend,521.0,n,carré
q3tttl1f8c,25.0,skinner,True,skinner,Friend,657.0,n,carré
q3tttl1f8c,26.0,Eminem,True,Eminem,Stranger,389.0,b,triangle
q3tttl1f8c,27.0,Vous,True,Vous,Self,757.0,v,cercle
q3tttl1f8c,28.0,Eminem,True,Eminem,Stranger,2012.0,b,triangle
q3tttl1f8c,29.0,skinner,True,skinner,Friend,589.0,n,carré
q3tttl1f8c,30.0,Eminem,True,Eminem,Stranger,1262.0,b,triangle
q3tttl1f8c,31.0,skinner,True,skinner,Friend,635.0,n,carré
q3tttl1f8c,32.0,skinner,True,skinner,Friend,1171.0,n,carré
q3tttl1f8c,33.0,Vous,True,Vous,Self,676.0,v,cercle
q3tttl1f8c,34.0,Eminem,True,Eminem,Stranger,699.0,b,triangle
q3tttl1f8c,35.0,Vous,True,Vous,Self,1079.0,v,cercle
q3tttl1f8c,36.0,Eminem,True,Eminem,Stranger,1063.0,b,triangle
qoanceely2,1.0,Vous,True,Vous,Self,4939.0,v,cercle
qoanceely2,2.0,Vous,True,Vous,Self,1814.0,v,cercle
qoanceely2,3.0,Vous,True,Vous,Self,988.0,v,cercle
qoanceely2,4.0,Vous,True,Vous,Self,718.0,v,cercle
qoanceely2,5.0,Vous,True,Vous,Self,1908.0,v,cercle
qoanceely2,6.0,Rihanna,True,Rihanna,Stranger,3163.0,b,carré
qoanceely2,7.0,Vous,True,Vous,Self,1185.0,v,cercle
qoanceely2,8.0,Céline,True,Céline,Friend,1284.0,n,triangle
qoanceely2,9.0,Rihanna,True,Rihanna,Stranger,1595.0,b,carré
qoanceely2,10.0,Vous,True,Vous,Self,983.0,v,cercle
qoanceely2,11.0,Rihanna,True,Rihanna,Stranger,1178.0,b,carré
qoanceely2,12.0,Rihanna,True,Rihanna,Stranger,1032.0,b,carré
qoanceely2,13.0,Céline,True,Céline,Friend,871.0,n,triangle
qoanceely2,14.0,Vous,True,Vous,Self,511.0,v,cercle
qoanceely2,15.0,Rihanna,True,Rihanna,Stranger,647.0,b,carré
qoanceely2,16.0,Céline,True,Céline,Friend,789.0,n,triangle
qoanceely2,17.0,Vous,False,Rihanna,Stranger,644.0,v,carré
qoanceely2,18.0,Rihanna,True,Rihanna,Stranger,713.0,b,carré
qoanceely2,19.0,Céline,True,Céline,Friend,979.0,n,triangle
qoanceely2,20.0,Rihanna,True,Rihanna,Stranger,725.0,b,carré
qoanceely2,21.0,Vous,True,Vous,Self,628.0,v,cercle
qoanceely2,22.0,Rihanna,True,Rihanna,Stranger,1847.0,b,carré
qoanceely2,23.0,Céline,True,Céline,Friend,677.0,n,triangle
qoanceely2,24.0,Rihanna,True,Rihanna,Stranger,881.0,b,carré
qoanceely2,25.0,Céline,True,Céline,Friend,974.0,n,triangle
qoanceely2,26.0,Rihanna,True,Rihanna,Stranger,474.0,b,carré
qoanceely2,27.0,Rihanna,True,Rihanna,Stranger,1585.0,b,carré
qoanceely2,28.0,Céline,True,Céline,Friend,680.0,n,triangle
qoanceely2,29.0,Rihanna,True,Rihanna,Stranger,1004.0,b,carré
qoanceely2,30.0,Rihanna,True,Rihanna,Stranger,571.0,b,carré
qoanceely2,31.0,Céline,True,Céline,Friend,616.0,n,triangle
qoanceely2,32.0,Céline,True,Céline,Friend,1150.0,n,triangle
qoanceely2,33.0,Céline,True,Céline,Friend,723.0,n,triangle
qoanceely2,34.0,Vous,True,Vous,Self,935.0,v,cercle
qoanceely2,35.0,Céline,True,Céline,Friend,1204.0,n,triangle
qoanceely2,36.0,Vous,True,Vous,Self,628.0,v,cercle
lqnwprskhp,1.0,Maxime,False,Vous,Self,3690.0,n,carré
lqnwprskhp,2.0,Eminem,True,Eminem,Stranger,1976.0,b,cercle
lqnwprskhp,3.0,Eminem,True,Eminem,Stranger,1390.0,b,cercle
lqnwprskhp,4.0,Vous,True,Vous,Self,1288.0,v,carré
lqnwprskhp,5.0,Vous,True,Vous,Self,941.0,v,carré
lqnwprskhp,6.0,Vous,True,Vous,Self,883.0,v,carré
lqnwprskhp,7.0,Eminem,True,Eminem,Stranger,1186.0,b,cercle
lqnwprskhp,8.0,Maxime,False,Vous,Self,1509.0,n,carré
lqnwprskhp,9.0,Vous,True,Vous,Self,1596.0,v,carré
lqnwprskhp,10.0,Maxime,True,Maxime,Friend,1042.0,n,triangle
lqnwprskhp,11.0,Vous,True,Vous,Self,1063.0,v,carré
lqnwprskhp,12.0,Vous,True,Vous,Self,979.0,v,carré
lqnwprskhp,13.0,Maxime,True,Maxime,Friend,1102.0,n,triangle
lqnwprskhp,14.0,Eminem,True,Eminem,Stranger,672.0,b,cercle
lqnwprskhp,15.0,Maxime,True,Maxime,Friend,787.0,n,triangle
lqnwprskhp,16.0,Eminem,True,Eminem,Stranger,852.0,b,cercle
lqnwprskhp,17.0,Maxime,True,Maxime,Friend,876.0,n,triangle
lqnwprskhp,18.0,Eminem,True,Eminem,Stranger,1537.0,b,cercle
lqnwprskhp,19.0,Maxime,True,Maxime,Friend,2462.0,n,triangle
lqnwprskhp,20.0,Eminem,True,Eminem,Stranger,1211.0,b,cercle
lqnwprskhp,21.0,Vous,True,Vous,Self,847.0,v,carré
lqnwprskhp,22.0,Eminem,True,Eminem,Stranger,643.0,b,cercle
lqnwprskhp,23.0,Eminem,True,Eminem,Stranger,606.0,b,cercle
lqnwprskhp,24.0,Eminem,True,Eminem,Stranger,579.0,b,cercle
lqnwprskhp,25.0,Maxime,True,Maxime,Friend,745.0,n,triangle
lqnwprskhp,26.0,Vous,True,Vous,Self,676.0,v,carré
lqnwprskhp,27.0,Maxime,False,Vous,Self,1142.0,n,carré
lqnwprskhp,28.0,Eminem,True,Eminem,Stranger,2093.0,b,cercle
lqnwprskhp,29.0,Vous,True,Vous,Self,2544.0,v,carré
lqnwprskhp,30.0,Eminem,True,Eminem,Stranger,1773.0,b,cercle
lqnwprskhp,31.0,Eminem,True,Eminem,Stranger,872.0,b,cercle
lqnwprskhp,32.0,Maxime,True,Maxime,Friend,761.0,n,triangle
lqnwprskhp,33.0,Maxime,True,Maxime,Friend,905.0,n,triangle
lqnwprskhp,34.0,Maxime,True,Maxime,Friend,949.0,n,triangle
lqnwprskhp,35.0,Maxime,True,Maxime,Friend,871.0,n,triangle
lqnwprskhp,36.0,Eminem,True,Eminem,Stranger,805.0,b,cercle
lqnwprskhp,37.0,Eminem,True,Eminem,Stranger,672.0,b,cercle
lqnwprskhp,38.0,Maxime,True,Maxime,Friend,2101.0,n,triangle
lqnwprskhp,39.0,Eminem,True,Eminem,Stranger,586.0,b,cercle
lqnwprskhp,40.0,Vous,True,Vous,Self,2027.0,v,carré
lqnwprskhp,41.0,Vous,True,Vous,Self,534.0,v,carré
lqnwprskhp,42.0,Eminem,True,Eminem,Stranger,2062.0,b,cercle
lqnwprskhp,43.0,Maxime,True,Maxime,Friend,2202.0,n,triangle
lqnwprskhp,44.0,Vous,True,Vous,Self,1971.0,v,carré
lqnwprskhp,45.0,Maxime,True,Maxime,Friend,2944.0,n,triangle
lqnwprskhp,46.0,Vous,True,Vous,Self,1007.0,v,carré
8eagbok3l7,1.0,,False,Vous,Self,,,carré
8eagbok3l7,2.0,mary,True,mary,Friend,2857.0,n,cercle
8eagbok3l7,3.0,Vous,True,Vous,Self,1539.0,v,carré
8eagbok3l7,4.0,Vous,True,Vous,Self,2014.0,v,carré
8eagbok3l7,5.0,Vous,True,Vous,Self,2847.0,v,carré
8eagbok3l7,6.0,Madonna,True,Madonna,Stranger,1942.0,b,triangle
8eagbok3l7,7.0,Vous,True,Vous,Self,1360.0,v,carré
8eagbok3l7,8.0,Vous,True,Vous,Self,947.0,v,carré
8eagbok3l7,9.0,mary,True,mary,Friend,1094.0,n,cercle
8eagbok3l7,10.0,Madonna,True,Madonna,Stranger,1183.0,b,triangle
8eagbok3l7,11.0,Vous,True,Vous,Self,1186.0,v,carré
8eagbok3l7,12.0,mary,True,mary,Friend,1649.0,n,cercle
8eagbok3l7,13.0,mary,True,mary,Friend,1145.0,n,cercle
8eagbok3l7,14.0,Vous,True,Vous,Self,1113.0,v,carré
8eagbok3l7,15.0,mary,True,mary,Friend,1121.0,n,cercle
8eagbok3l7,16.0,Madonna,True,Madonna,Stranger,821.0,b,triangle
8eagbok3l7,17.0,Madonna,True,Madonna,Stranger,1679.0,b,triangle
8eagbok3l7,18.0,Vous,True,Vous,Self,726.0,v,carré
8eagbok3l7,19.0,mary,True,mary,Friend,590.0,n,cercle
8eagbok3l7,20.0,Madonna,True,Madonna,Stranger,1594.0,b,triangle
nrj4ggycce,1.0,Vous,True,Vous,Self,4404.0,v,carré
nrj4ggycce,2.0,Madonna,True,Madonna,Stranger,1294.0,b,cercle
nrj4ggycce,3.0,Vous,True,Vous,Self,1354.0,v,carré
nrj4ggycce,4.0,Vous,True,Vous,Self,1540.0,v,carré
nrj4ggycce,5.0,Vous,True,Vous,Self,1381.0,v,carré
nrj4ggycce,6.0,Vous,True,Vous,Self,1092.0,v,carré
nrj4ggycce,7.0,Madonna,True,Madonna,Stranger,1597.0,b,cercle
nrj4ggycce,8.0,Johanna,True,Johanna,Friend,700.0,n,triangle
nrj4ggycce,9.0,Madonna,True,Madonna,Stranger,1009.0,b,cercle
nrj4ggycce,10.0,Madonna,True,Madonna,Stranger,1110.0,b,cercle
nrj4ggycce,11.0,Vous,True,Vous,Self,778.0,v,carré
nrj4ggycce,12.0,Johanna,True,Johanna,Friend,1447.0,n,triangle
nrj4ggycce,13.0,Madonna,True,Madonna,Stranger,1100.0,b,cercle
nrj4ggycce,14.0,Madonna,True,Madonna,Stranger,940.0,b,cercle
nrj4ggycce,15.0,Vous,True,Vous,Self,642.0,v,carré
nrj4ggycce,16.0,Madonna,True,Madonna,Stranger,650.0,b,cercle
nrj4ggycce,17.0,Johanna,True,Johanna,Friend,723.0,n,triangle
nrj4ggycce,18.0,Johanna,True,Johanna,Friend,700.0,n,triangle
nrj4ggycce,19.0,Johanna,True,Johanna,Friend,668.0,n,triangle
kqrrlozs56,1.0,Vous,True,Vous,Self,4817.0,v,carré
kqrrlozs56,2.0,Vous,True,Vous,Self,1500.0,v,carré
kqrrlozs56,3.0,Eminem,True,Eminem,Stranger,1987.0,b,triangle
kqrrlozs56,4.0,Vous,True,Vous,Self,1127.0,v,carré
kqrrlozs56,5.0,Vous,True,Vous,Self,1450.0,v,carré
kqrrlozs56,6.0,Vous,True,Vous,Self,891.0,v,carré
kqrrlozs56,7.0,Franck,True,Franck,Friend,1312.0,n,cercle
kqrrlozs56,8.0,Eminem,True,Eminem,Stranger,1934.0,b,triangle
kqrrlozs56,9.0,Vous,True,Vous,Self,1081.0,v,carré
kqrrlozs56,10.0,Vous,True,Vous,Self,964.0,v,carré
kqrrlozs56,11.0,Franck,True,Franck,Friend,1288.0,n,cercle
kqrrlozs56,12.0,Franck,True,Franck,Friend,1299.0,n,cercle
kqrrlozs56,13.0,Vous,True,Vous,Self,2310.0,v,carré
kqrrlozs56,14.0,Franck,True,Franck,Friend,1083.0,n,cercle
kqrrlozs56,15.0,Vous,True,Vous,Self,959.0,v,carré
kqrrlozs56,16.0,Vous,True,Vous,Self,831.0,v,carré
kqrrlozs56,17.0,Vous,True,Vous,Self,1058.0,v,carré
kqrrlozs56,18.0,Vous,True,Vous,Self,1256.0,v,carré
kqrrlozs56,19.0,Franck,True,Franck,Friend,1114.0,n,cercle
8j68fx62sj,1.0,,False,Madonna,Stranger,,,carré
8j68fx62sj,2.0,emmanuelle,True,emmanuelle,Friend,3177.0,n,cercle
8j68fx62sj,3.0,emmanuelle,True,emmanuelle,Friend,2701.0,n,cercle
8j68fx62sj,4.0,Madonna,True,Madonna,Stranger,988.0,b,carré
8j68fx62sj,5.0,emmanuelle,True,emmanuelle,Friend,1646.0,n,cercle
8j68fx62sj,6.0,emmanuelle,True,emmanuelle,Friend,764.0,n,cercle
8j68fx62sj,7.0,emmanuelle,True,emmanuelle,Friend,747.0,n,cercle
8j68fx62sj,8.0,Vous,True,Vous,Self,737.0,v,triangle
8j68fx62sj,9.0,Vous,True,Vous,Self,612.0,v,triangle
8j68fx62sj,10.0,emmanuelle,True,emmanuelle,Friend,730.0,n,cercle
8j68fx62sj,11.0,emmanuelle,True,emmanuelle,Friend,584.0,n,cercle
8j68fx62sj,12.0,emmanuelle,True,emmanuelle,Friend,480.0,n,cercle
8j68fx62sj,13.0,Madonna,True,Madonna,Stranger,1441.0,b,carré
8j68fx62sj,14.0,emmanuelle,True,emmanuelle,Friend,541.0,n,cercle
8j68fx62sj,15.0,emmanuelle,True,emmanuelle,Friend,510.0,n,cercle
8j68fx62sj,16.0,Madonna,True,Madonna,Stranger,725.0,b,carré
8j68fx62sj,17.0,Vous,True,Vous,Self,835.0,v,triangle
8j68fx62sj,18.0,Vous,True,Vous,Self,626.0,v,triangle
8j68fx62sj,19.0,Vous,True,Vous,Self,432.0,v,triangle
8j68fx62sj,20.0,Vous,False,Madonna,Stranger,341.0,v,carré
8j68fx62sj,21.0,emmanuelle,True,emmanuelle,Friend,520.0,n,cercle
8j68fx62sj,22.0,Vous,True,Vous,Self,733.0,v,triangle
8j68fx62sj,23.0,Vous,True,Vous,Self,962.0,v,triangle
8j68fx62sj,24.0,emmanuelle,True,emmanuelle,Friend,576.0,n,cercle
8j68fx62sj,25.0,Madonna,True,Madonna,Stranger,715.0,b,carré
8j68fx62sj,26.0,Madonna,True,Madonna,Stranger,503.0,b,carré
8j68fx62sj,27.0,emmanuelle,False,Vous,Self,736.0,n,triangle
8j68fx62sj,28.0,emmanuelle,True,emmanuelle,Friend,595.0,n,cercle
8j68fx62sj,29.0,emmanuelle,True,emmanuelle,Friend,1446.0,n,cercle
8j68fx62sj,30.0,Madonna,True,Madonna,Stranger,869.0,b,carré
8j68fx62sj,31.0,emmanuelle,True,emmanuelle,Friend,616.0,n,cercle
8j68fx62sj,32.0,emmanuelle,True,emmanuelle,Friend,986.0,n,cercle
8j68fx62sj,33.0,emmanuelle,True,emmanuelle,Friend,598.0,n,cercle
8j68fx62sj,34.0,Madonna,True,Madonna,Stranger,714.0,b,carré
8j68fx62sj,35.0,emmanuelle,True,emmanuelle,Friend,766.0,n,cercle
8j68fx62sj,36.0,Madonna,True,Madonna,Stranger,1844.0,b,carré
8j68fx62sj,37.0,emmanuelle,False,Vous,Self,708.0,n,triangle
8j68fx62sj,38.0,emmanuelle,True,emmanuelle,Friend,970.0,n,cercle
8j68fx62sj,39.0,Vous,True,Vous,Self,571.0,v,triangle
8j68fx62sj,40.0,Madonna,True,Madonna,Stranger,794.0,b,carré
8j68fx62sj,41.0,Vous,True,Vous,Self,662.0,v,triangle
8j68fx62sj,42.0,Vous,True,Vous,Self,619.0,v,triangle
8j68fx62sj,43.0,Vous,True,Vous,Self,480.0,v,triangle
8j68fx62sj,44.0,Vous,True,Vous,Self,351.0,v,triangle
8j68fx62sj,45.0,Madonna,True,Madonna,Stranger,523.0,b,carré
8j68fx62sj,46.0,Vous,True,Vous,Self,631.0,v,triangle
8j68fx62sj,47.0,Madonna,True,Madonna,Stranger,698.0,b,carré
8j68fx62sj,48.0,Vous,True,Vous,Self,581.0,v,triangle
8j68fx62sj,49.0,emmanuelle,True,emmanuelle,Friend,864.0,n,cercle
8j68fx62sj,50.0,Vous,True,Vous,Self,590.0,v,triangle
8j68fx62sj,51.0,Madonna,True,Madonna,Stranger,887.0,b,carré
8j68fx62sj,52.0,emmanuelle,True,emmanuelle,Friend,1065.0,n,cercle
8j68fx62sj,53.0,Vous,True,Vous,Self,597.0,v,triangle
8j68fx62sj,54.0,Madonna,True,Madonna,Stranger,559.0,b,carré
8j68fx62sj,55.0,Madonna,True,Madonna,Stranger,629.0,b,carré
8j68fx62sj,56.0,emmanuelle,True,emmanuelle,Friend,619.0,n,cercle
w0zs5o743w,1.0,Jonathan,True,Jonathan,Friend,5368.0,n,triangle
w0zs5o743w,2.0,Eminem,True,Eminem,Stranger,4832.0,b,carré
w0zs5o743w,3.0,Vous,False,Jonathan,Friend,4452.0,v,triangle
w0zs5o743w,4.0,Vous,True,Vous,Self,2090.0,v,cercle
w0zs5o743w,5.0,Eminem,True,Eminem,Stranger,2597.0,b,carré
w0zs5o743w,6.0,Jonathan,True,Jonathan,Friend,3601.0,n,triangle
w0zs5o743w,7.0,Eminem,True,Eminem,Stranger,3192.0,b,carré
w0zs5o743w,8.0,Vous,True,Vous,Self,2703.0,v,cercle
w0zs5o743w,9.0,Jonathan,True,Jonathan,Friend,2835.0,n,triangle
w0zs5o743w,10.0,Vous,True,Vous,Self,2099.0,v,cercle
w0zs5o743w,11.0,Eminem,True,Eminem,Stranger,2196.0,b,carré
w0zs5o743w,12.0,Vous,True,Vous,Self,2476.0,v,cercle
w0zs5o743w,13.0,Jonathan,True,Jonathan,Friend,1813.0,n,triangle
w0zs5o743w,14.0,Eminem,True,Eminem,Stranger,1717.0,b,carré
w0zs5o743w,15.0,Eminem,True,Eminem,Stranger,1952.0,b,carré
w0zs5o743w,16.0,Jonathan,True,Jonathan,Friend,1642.0,n,triangle
w0zs5o743w,17.0,Eminem,True,Eminem,Stranger,1655.0,b,carré
w0zs5o743w,18.0,Eminem,True,Eminem,Stranger,1689.0,b,carré
w0zs5o743w,19.0,Jonathan,True,Jonathan,Friend,1474.0,n,triangle
w0zs5o743w,20.0,Vous,True,Vous,Self,1523.0,v,cercle
w0zs5o743w,21.0,Vous,True,Vous,Self,1713.0,v,cercle
w0zs5o743w,22.0,Jonathan,True,Jonathan,Friend,2350.0,n,triangle
2vkpbdv635,1.0,,False,Vous,Self,,,carré
2vkpbdv635,2.0,Vous,True,Vous,Self,5646.0,v,carré
2vkpbdv635,3.0,Vous,True,Vous,Self,2212.0,v,carré
2vkpbdv635,4.0,Eminem,True,Eminem,Stranger,2706.0,b,cercle
2vkpbdv635,5.0,Vous,True,Vous,Self,2086.0,v,carré
2vkpbdv635,6.0,Michael,True,Michael,Friend,1684.0,n,triangle
2vkpbdv635,7.0,Michael,True,Michael,Friend,2922.0,n,triangle
2vkpbdv635,8.0,Michael,True,Michael,Friend,1370.0,n,triangle
2vkpbdv635,9.0,Eminem,True,Eminem,Stranger,1338.0,b,cercle
2vkpbdv635,10.0,Michael,True,Michael,Friend,1107.0,n,triangle
2vkpbdv635,11.0,Vous,True,Vous,Self,1182.0,v,carré
2vkpbdv635,12.0,Michael,True,Michael,Friend,1329.0,n,triangle
2vkpbdv635,13.0,Vous,True,Vous,Self,3351.0,v,carré
2vkpbdv635,14.0,Vous,True,Vous,Self,2267.0,v,carré
2vkpbdv635,15.0,Eminem,True,Eminem,Stranger,1179.0,b,cercle
2vkpbdv635,16.0,Michael,True,Michael,Friend,1273.0,n,triangle
2vkpbdv635,17.0,Vous,True,Vous,Self,1053.0,v,carré
2vkpbdv635,18.0,Eminem,True,Eminem,Stranger,841.0,b,cercle
2vkpbdv635,19.0,Eminem,True,Eminem,Stranger,631.0,b,cercle
2vkpbdv635,20.0,Michael,True,Michael,Friend,654.0,n,triangle
v3hkn0g0za,1.0,Eminem,True,Eminem,Stranger,1318.0,b,carré
v3hkn0g0za,2.0,Vous,True,Vous,Self,1656.0,v,triangle
v3hkn0g0za,3.0,Vous,True,Vous,Self,635.0,v,triangle
v3hkn0g0za,4.0,Vous,True,Vous,Self,689.0,v,triangle
v3hkn0g0za,5.0,Vous,True,Vous,Self,856.0,v,triangle
v3hkn0g0za,6.0,Vous,True,Vous,Self,522.0,v,triangle
v3hkn0g0za,7.0,Eric,True,Eric,Friend,633.0,n,cercle
v3hkn0g0za,8.0,Vous,True,Vous,Self,607.0,v,triangle
v3hkn0g0za,9.0,Eminem,True,Eminem,Stranger,749.0,b,carré
v3hkn0g0za,10.0,Vous,True,Vous,Self,680.0,v,triangle
v3hkn0g0za,11.0,Eminem,True,Eminem,Stranger,703.0,b,carré
v3hkn0g0za,12.0,Eric,True,Eric,Friend,646.0,n,cercle
v3hkn0g0za,13.0,Eminem,True,Eminem,Stranger,1020.0,b,carré
v3hkn0g0za,14.0,Eminem,True,Eminem,Stranger,759.0,b,carré
v3hkn0g0za,15.0,Eric,True,Eric,Friend,694.0,n,cercle
v3hkn0g0za,16.0,Eric,True,Eric,Friend,1046.0,n,cercle
v3hkn0g0za,17.0,Eric,True,Eric,Friend,607.0,n,cercle
v3hkn0g0za,18.0,Vous,True,Vous,Self,669.0,v,triangle
v3hkn0g0za,19.0,Eminem,True,Eminem,Stranger,582.0,b,carré
210h5uz713,1.0,Vous,True,Vous,Self,652.0,v,cercle
210h5uz713,2.0,Vous,True,Vous,Self,443.0,v,cercle
210h5uz713,3.0,Vous,False,Pink,Stranger,344.0,v,carré
210h5uz713,4.0,adonia,True,adonia,Friend,474.0,n,triangle
210h5uz713,5.0,Vous,True,Vous,Self,401.0,v,cercle
210h5uz713,6.0,Pink,True,Pink,Stranger,506.0,b,carré
210h5uz713,7.0,adonia,True,adonia,Friend,511.0,n,triangle
210h5uz713,8.0,Vous,True,Vous,Self,451.0,v,cercle
210h5uz713,9.0,adonia,True,adonia,Friend,679.0,n,triangle
210h5uz713,10.0,adonia,True,adonia,Friend,595.0,n,triangle
210h5uz713,11.0,Pink,True,Pink,Stranger,554.0,b,carré
210h5uz713,12.0,Pink,True,Pink,Stranger,389.0,b,carré
210h5uz713,13.0,adonia,True,adonia,Friend,459.0,n,triangle
210h5uz713,14.0,Pink,True,Pink,Stranger,743.0,b,carré
210h5uz713,15.0,Pink,True,Pink,Stranger,348.0,b,carré
210h5uz713,16.0,adonia,True,adonia,Friend,415.0,n,triangle
210h5uz713,17.0,Pink,True,Pink,Stranger,423.0,b,carré
210h5uz713,18.0,adonia,True,adonia,Friend,456.0,n,triangle
210h5uz713,19.0,Pink,True,Pink,Stranger,421.0,b,carré
210h5uz713,20.0,Vous,True,Vous,Self,433.0,v,cercle
210h5uz713,21.0,adonia,True,adonia,Friend,478.0,n,triangle
210h5uz713,22.0,Pink,True,Pink,Stranger,447.0,b,carré
3vosqpph84,1.0,You,True,You,Self,2379.0,v,square
3vosqpph84,2.0,ray,True,ray,Friend,2665.0,n,triangle
3vosqpph84,3.0,ray,True,ray,Friend,732.0,n,triangle
3vosqpph84,4.0,You,True,You,Self,670.0,v,square
3vosqpph84,5.0,You,True,You,Self,837.0,v,square
3vosqpph84,6.0,You,True,You,Self,488.0,v,square
3vosqpph84,7.0,You,True,You,Self,615.0,v,square
3vosqpph84,8.0,You,True,You,Self,490.0,v,square
3vosqpph84,9.0,Sting,True,Sting,Stranger,471.0,b,circle
3vosqpph84,10.0,ray,True,ray,Friend,673.0,n,triangle
3vosqpph84,11.0,Sting,True,Sting,Stranger,543.0,b,circle
3vosqpph84,12.0,You,True,You,Self,535.0,v,square
3vosqpph84,13.0,ray,True,ray,Friend,500.0,n,triangle
3vosqpph84,14.0,ray,True,ray,Friend,496.0,n,triangle
3vosqpph84,15.0,Sting,True,Sting,Stranger,361.0,b,circle
3vosqpph84,16.0,Sting,True,Sting,Stranger,991.0,b,circle
3vosqpph84,17.0,ray,True,ray,Friend,507.0,n,triangle
3vosqpph84,18.0,Sting,True,Sting,Stranger,592.0,b,circle
3vosqpph84,19.0,Sting,True,Sting,Stranger,820.0,b,circle
fqy71bajv6,1.0,,False,Alona,Friend,,,triangle
fqy71bajv6,2.0,Alona,True,Alona,Friend,3599.0,n,triangle
fqy71bajv6,3.0,You,False,Madonna,Stranger,2190.0,v,circle
fqy71bajv6,4.0,You,True,You,Self,1207.0,v,square
fqy71bajv6,5.0,You,True,You,Self,1523.0,v,square
fqy71bajv6,6.0,You,True,You,Self,825.0,v,square
fqy71bajv6,7.0,Madonna,True,Madonna,Stranger,1376.0,b,circle
fqy71bajv6,8.0,You,True,You,Self,656.0,v,square
fqy71bajv6,9.0,You,True,You,Self,1007.0,v,square
fqy71bajv6,10.0,You,True,You,Self,754.0,v,square
fqy71bajv6,11.0,Madonna,True,Madonna,Stranger,820.0,b,circle
fqy71bajv6,12.0,You,True,You,Self,673.0,v,square
fqy71bajv6,13.0,Alona,True,Alona,Friend,776.0,n,triangle
fqy71bajv6,14.0,You,False,Madonna,Stranger,863.0,v,circle
fqy71bajv6,15.0,You,True,You,Self,929.0,v,square
fqy71bajv6,16.0,Madonna,True,Madonna,Stranger,1732.0,b,circle
fqy71bajv6,17.0,Alona,True,Alona,Friend,861.0,n,triangle
fqy71bajv6,18.0,You,True,You,Self,2267.0,v,square
fqy71bajv6,19.0,Madonna,True,Madonna,Stranger,1626.0,b,circle
fqy71bajv6,20.0,Alona,True,Alona,Friend,723.0,n,triangle
fqy71bajv6,21.0,Madonna,True,Madonna,Stranger,957.0,b,circle
fqy71bajv6,22.0,You,True,You,Self,870.0,v,square
fqy71bajv6,23.0,Alona,True,Alona,Friend,1596.0,n,triangle
fqy71bajv6,24.0,You,True,You,Self,875.0,v,square
fqy71bajv6,25.0,Madonna,True,Madonna,Stranger,655.0,b,circle
fqy71bajv6,26.0,Alona,True,Alona,Friend,669.0,n,triangle
fqy71bajv6,27.0,Madonna,True,Madonna,Stranger,2038.0,b,circle
fqy71bajv6,28.0,You,True,You,Self,737.0,v,square
fqy71bajv6,29.0,Alona,True,Alona,Friend,710.0,n,triangle
fqy71bajv6,30.0,Madonna,True,Madonna,Stranger,850.0,b,circle
fqy71bajv6,31.0,Madonna,True,Madonna,Stranger,549.0,b,circle
fqy71bajv6,32.0,Madonna,True,Madonna,Stranger,666.0,b,circle
fqy71bajv6,33.0,You,True,You,Self,863.0,v,square
sx9kmgaj4y,1.0,Vous,True,Vous,Self,2031.0,v,cercle
sx9kmgaj4y,2.0,Eminem,True,Eminem,Stranger,999.0,b,carré
sx9kmgaj4y,3.0,Vous,True,Vous,Self,658.0,v,cercle
sx9kmgaj4y,4.0,xxx,True,xxx,Friend,529.0,n,triangle
sx9kmgaj4y,5.0,Vous,True,Vous,Self,612.0,v,cercle
sx9kmgaj4y,6.0,xxx,True,xxx,Friend,664.0,n,triangle
sx9kmgaj4y,7.0,Vous,True,Vous,Self,724.0,v,cercle
sx9kmgaj4y,8.0,xxx,True,xxx,Friend,1240.0,n,triangle
sx9kmgaj4y,9.0,Eminem,True,Eminem,Stranger,717.0,b,carré
sx9kmgaj4y,10.0,Eminem,True,Eminem,Stranger,499.0,b,carré
sx9kmgaj4y,11.0,Vous,True,Vous,Self,901.0,v,cercle
sx9kmgaj4y,12.0,xxx,True,xxx,Friend,613.0,n,triangle
sx9kmgaj4y,13.0,Eminem,True,Eminem,Stranger,905.0,b,carré
sx9kmgaj4y,14.0,Vous,True,Vous,Self,539.0,v,cercle
sx9kmgaj4y,15.0,xxx,True,xxx,Friend,750.0,n,triangle
sx9kmgaj4y,16.0,Vous,True,Vous,Self,856.0,v,cercle
sx9kmgaj4y,17.0,xxx,True,xxx,Friend,1304.0,n,triangle
sx9kmgaj4y,18.0,xxx,True,xxx,Friend,572.0,n,triangle
sx9kmgaj4y,19.0,xxx,True,xxx,Friend,517.0,n,triangle
ue57u9arlj,1.0,Rihanna,True,Rihanna,Stranger,2104.0,b,carré
ue57u9arlj,2.0,cris,True,cris,Friend,921.0,n,cercle
ue57u9arlj,3.0,Rihanna,True,Rihanna,Stranger,806.0,b,carré
ue57u9arlj,4.0,cris,True,cris,Friend,677.0,n,cercle
ue57u9arlj,5.0,cris,True,cris,Friend,768.0,n,cercle
ue57u9arlj,6.0,Vous,True,Vous,Self,697.0,v,triangle
ue57u9arlj,7.0,cris,True,cris,Friend,634.0,n,cercle
ue57u9arlj,8.0,cris,True,cris,Friend,951.0,n,cercle
ue57u9arlj,9.0,Vous,True,Vous,Self,884.0,v,triangle
ue57u9arlj,10.0,Rihanna,True,Rihanna,Stranger,623.0,b,carré
ue57u9arlj,11.0,cris,True,cris,Friend,728.0,n,cercle
ue57u9arlj,12.0,cris,True,cris,Friend,615.0,n,cercle
ue57u9arlj,13.0,cris,True,cris,Friend,511.0,n,cercle
ue57u9arlj,14.0,Rihanna,True,Rihanna,Stranger,788.0,b,carré
ue57u9arlj,15.0,Rihanna,True,Rihanna,Stranger,484.0,b,carré
ue57u9arlj,16.0,Rihanna,True,Rihanna,Stranger,471.0,b,carré
ue57u9arlj,17.0,Vous,True,Vous,Self,490.0,v,triangle
ue57u9arlj,18.0,cris,True,cris,Friend,644.0,n,cercle
ue57u9arlj,19.0,cris,True,cris,Friend,409.0,n,cercle
9buso7t050,1.0,xxx,True,xxx,Friend,1361.0,n,triangle
9buso7t050,2.0,xxx,True,xxx,Friend,1146.0,n,triangle
9buso7t050,3.0,You,False,Shakira,Stranger,1007.0,v,square
9buso7t050,4.0,You,True,You,Self,602.0,v,circle
9buso7t050,5.0,xxx,True,xxx,Friend,944.0,n,triangle
9buso7t050,6.0,Shakira,True,Shakira,Stranger,943.0,b,square
9buso7t050,7.0,xxx,True,xxx,Friend,581.0,n,triangle
9buso7t050,8.0,Shakira,True,Shakira,Stranger,523.0,b,square
9buso7t050,9.0,Shakira,True,Shakira,Stranger,593.0,b,square
9buso7t050,10.0,You,True,You,Self,593.0,v,circle
9buso7t050,11.0,Shakira,False,You,Self,662.0,b,circle
9buso7t050,12.0,Shakira,True,Shakira,Stranger,534.0,b,square
9buso7t050,13.0,xxx,True,xxx,Friend,563.0,n,triangle
9buso7t050,14.0,You,True,You,Self,394.0,v,circle
9buso7t050,15.0,Shakira,True,Shakira,Stranger,882.0,b,square
9buso7t050,16.0,You,True,You,Self,433.0,v,circle
9buso7t050,17.0,You,True,You,Self,1148.0,v,circle
9buso7t050,18.0,Shakira,True,Shakira,Stranger,441.0,b,square
9buso7t050,19.0,You,True,You,Self,933.0,v,circle
9buso7t050,20.0,Shakira,True,Shakira,Stranger,576.0,b,square
9buso7t050,21.0,You,True,You,Self,512.0,v,circle
9buso7t050,22.0,Shakira,True,Shakira,Stranger,526.0,b,square
9buso7t050,23.0,You,True,You,Self,550.0,v,circle
9buso7t050,24.0,Shakira,False,You,Self,659.0,b,circle
9buso7t050,25.0,You,True,You,Self,793.0,v,circle
9buso7t050,26.0,You,True,You,Self,593.0,v,circle
9buso7t050,27.0,You,True,You,Self,378.0,v,circle
9buso7t050,28.0,xxx,True,xxx,Friend,581.0,n,triangle
9buso7t050,29.0,xxx,True,xxx,Friend,463.0,n,triangle
9buso7t050,30.0,Shakira,True,Shakira,Stranger,1419.0,b,square
9buso7t050,31.0,Shakira,True,Shakira,Stranger,614.0,b,square
9buso7t050,32.0,xxx,True,xxx,Friend,590.0,n,triangle
9buso7t050,33.0,You,True,You,Self,581.0,v,circle
9buso7t050,34.0,You,True,You,Self,483.0,v,circle
9buso7t050,35.0,Shakira,True,Shakira,Stranger,922.0,b,square
9buso7t050,36.0,xxx,True,xxx,Friend,505.0,n,triangle
9buso7t050,37.0,xxx,True,xxx,Friend,478.0,n,triangle
9buso7t050,38.0,Shakira,True,Shakira,Stranger,1248.0,b,square
9buso7t050,39.0,xxx,True,xxx,Friend,551.0,n,triangle
9buso7t050,40.0,Shakira,True,Shakira,Stranger,593.0,b,square
9buso7t050,41.0,You,True,You,Self,516.0,v,circle
9buso7t050,42.0,xxx,True,xxx,Friend,508.0,n,triangle
9buso7t050,43.0,You,True,You,Self,1040.0,v,circle
veqzcl1wep,1.0,Adonia,True,Adonia,Friend,1151.0,n,cercle
veqzcl1wep,2.0,Vous,True,Vous,Self,887.0,v,carré
veqzcl1wep,3.0,Adonia,True,Adonia,Friend,864.0,n,cercle
veqzcl1wep,4.0,Adonia,True,Adonia,Friend,534.0,n,cercle
veqzcl1wep,5.0,Vous,True,Vous,Self,374.0,v,carré
veqzcl1wep,6.0,Vous,True,Vous,Self,316.0,v,carré
veqzcl1wep,7.0,Vous,True,Vous,Self,285.0,v,carré
veqzcl1wep,8.0,Pink,True,Pink,Stranger,402.0,b,triangle
veqzcl1wep,9.0,Adonia,False,Vous,Self,369.0,n,carré
veqzcl1wep,10.0,Pink,True,Pink,Stranger,502.0,b,triangle
veqzcl1wep,11.0,Adonia,False,Pink,Stranger,511.0,n,triangle
veqzcl1wep,12.0,Pink,True,Pink,Stranger,484.0,b,triangle
veqzcl1wep,13.0,Vous,True,Vous,Self,478.0,v,carré
veqzcl1wep,14.0,Pink,True,Pink,Stranger,438.0,b,triangle
veqzcl1wep,15.0,Vous,True,Vous,Self,446.0,v,carré
veqzcl1wep,16.0,Adonia,True,Adonia,Friend,444.0,n,cercle
veqzcl1wep,17.0,Adonia,True,Adonia,Friend,411.0,n,cercle
veqzcl1wep,18.0,Vous,True,Vous,Self,532.0,v,carré
veqzcl1wep,19.0,Pink,True,Pink,Stranger,409.0,b,triangle
veqzcl1wep,20.0,Vous,False,Adonia,Friend,434.0,v,cercle
veqzcl1wep,21.0,Pink,True,Pink,Stranger,611.0,b,triangle
veqzcl1wep,22.0,Vous,True,Vous,Self,410.0,v,carré
veqzcl1wep,23.0,Pink,True,Pink,Stranger,562.0,b,triangle
veqzcl1wep,24.0,Adonia,True,Adonia,Friend,499.0,n,cercle
veqzcl1wep,25.0,Adonia,True,Adonia,Friend,346.0,n,cercle
veqzcl1wep,26.0,Adonia,True,Adonia,Friend,301.0,n,cercle
veqzcl1wep,27.0,Vous,True,Vous,Self,510.0,v,carré
veqzcl1wep,28.0,Adonia,True,Adonia,Friend,571.0,n,cercle
veqzcl1wep,29.0,Vous,True,Vous,Self,807.0,v,carré
veqzcl1wep,30.0,Pink,True,Pink,Stranger,578.0,b,triangle
veqzcl1wep,31.0,Pink,True,Pink,Stranger,385.0,b,triangle
veqzcl1wep,32.0,Adonia,True,Adonia,Friend,484.0,n,cercle
veqzcl1wep,33.0,Pink,True,Pink,Stranger,727.0,b,triangle
veqzcl1wep,34.0,Vous,True,Vous,Self,537.0,v,carré
veqzcl1wep,35.0,Adonia,True,Adonia,Friend,452.0,n,cercle
veqzcl1wep,36.0,Adonia,True,Adonia,Friend,368.0,n,cercle
veqzcl1wep,37.0,Vous,True,Vous,Self,451.0,v,carré
veqzcl1wep,38.0,Pink,True,Pink,Stranger,370.0,b,triangle
veqzcl1wep,39.0,Pink,True,Pink,Stranger,491.0,b,triangle
2nqz6f4zpj,1.0,Shakira,False,Mia,Friend,1908.0,b,triangle
2nqz6f4zpj,2.0,Shakira,True,Shakira,Stranger,758.0,b,square
2nqz6f4zpj,3.0,Mia,True,Mia,Friend,684.0,n,triangle
2nqz6f4zpj,4.0,Mia,True,Mia,Friend,587.0,n,triangle
2nqz6f4zpj,5.0,Shakira,True,Shakira,Stranger,454.0,b,square
2nqz6f4zpj,6.0,Mia,True,Mia,Friend,535.0,n,triangle
2nqz6f4zpj,7.0,Shakira,True,Shakira,Stranger,529.0,b,square
2nqz6f4zpj,8.0,You,True,You,Self,418.0,v,circle
2nqz6f4zpj,9.0,You,True,You,Self,416.0,v,circle
2nqz6f4zpj,10.0,Shakira,True,Shakira,Stranger,542.0,b,square
2nqz6f4zpj,11.0,Shakira,True,Shakira,Stranger,415.0,b,square
2nqz6f4zpj,12.0,Shakira,True,Shakira,Stranger,484.0,b,square
2nqz6f4zpj,13.0,Mia,True,Mia,Friend,882.0,n,triangle
2nqz6f4zpj,14.0,Mia,True,Mia,Friend,408.0,n,triangle
2nqz6f4zpj,15.0,Shakira,True,Shakira,Stranger,490.0,b,square
2nqz6f4zpj,16.0,You,True,You,Self,575.0,v,circle
2nqz6f4zpj,17.0,Mia,True,Mia,Friend,623.0,n,triangle
2nqz6f4zpj,18.0,Shakira,True,Shakira,Stranger,485.0,b,square
2nqz6f4zpj,19.0,You,True,You,Self,1095.0,v,circle
2nqz6f4zpj,20.0,You,True,You,Self,380.0,v,circle
2nqz6f4zpj,325.0,You,True,You,Self,4538.0,v,triangle
0uouk7qssy,1.0,,False,You,Self,,,triangle
0uouk7qssy,2.0,Elvis,True,Elvis,Stranger,1731.0,b,circle
0uouk7qssy,3.0,Sthe,True,Sthe,Friend,1077.0,n,square
0uouk7qssy,4.0,Elvis,True,Elvis,Stranger,825.0,b,circle
0uouk7qssy,5.0,You,True,You,Self,884.0,v,triangle
0uouk7qssy,6.0,Elvis,True,Elvis,Stranger,970.0,b,circle
0uouk7qssy,7.0,Sthe,True,Sthe,Friend,502.0,n,square
0uouk7qssy,8.0,Sthe,True,Sthe,Friend,830.0,n,square
0uouk7qssy,9.0,Elvis,True,Elvis,Stranger,736.0,b,circle
0uouk7qssy,10.0,Elvis,True,Elvis,Stranger,560.0,b,circle
0uouk7qssy,11.0,Sthe,True,Sthe,Friend,623.0,n,square
0uouk7qssy,12.0,Sthe,True,Sthe,Friend,867.0,n,square
0uouk7qssy,13.0,Sthe,True,Sthe,Friend,506.0,n,square
0uouk7qssy,14.0,Sthe,True,Sthe,Friend,524.0,n,square
0uouk7qssy,15.0,You,True,You,Self,887.0,v,triangle
0uouk7qssy,16.0,You,True,You,Self,574.0,v,triangle
0uouk7qssy,17.0,Elvis,True,Elvis,Stranger,495.0,b,circle
0uouk7qssy,18.0,You,True,You,Self,632.0,v,triangle
0uouk7qssy,19.0,You,True,You,Self,667.0,v,triangle
0uouk7qssy,20.0,Elvis,True,Elvis,Stranger,887.0,b,circle
0u5okhrpdu,1.0,You,True,You,Self,1916.0,v,circle
0u5okhrpdu,2.0,Wendy,True,Wendy,Friend,1237.0,n,triangle
0u5okhrpdu,3.0,You,True,You,Self,513.0,v,circle
0u5okhrpdu,4.0,You,True,You,Self,609.0,v,circle
0u5okhrpdu,5.0,Beyonce,True,Beyonce,Stranger,403.0,b,square
0u5okhrpdu,6.0,Wendy,True,Wendy,Friend,502.0,n,triangle
0u5okhrpdu,7.0,Wendy,True,Wendy,Friend,406.0,n,triangle
0u5okhrpdu,8.0,You,True,You,Self,527.0,v,circle
0u5okhrpdu,9.0,Beyonce,True,Beyonce,Stranger,425.0,b,square
0u5okhrpdu,10.0,Beyonce,True,Beyonce,Stranger,491.0,b,square
0u5okhrpdu,11.0,Beyonce,True,Beyonce,Stranger,361.0,b,square
0u5okhrpdu,12.0,Beyonce,True,Beyonce,Stranger,351.0,b,square
0u5okhrpdu,13.0,Wendy,True,Wendy,Friend,570.0,n,triangle
0u5okhrpdu,14.0,Wendy,True,Wendy,Friend,583.0,n,triangle
0u5okhrpdu,15.0,Beyonce,True,Beyonce,Stranger,481.0,b,square
0u5okhrpdu,16.0,Beyonce,False,Wendy,Friend,377.0,b,triangle
0u5okhrpdu,17.0,Wendy,True,Wendy,Friend,547.0,n,triangle
0u5okhrpdu,18.0,Beyonce,True,Beyonce,Stranger,390.0,b,square
0u5okhrpdu,19.0,Wendy,True,Wendy,Friend,480.0,n,triangle
0u5okhrpdu,20.0,Beyonce,True,Beyonce,Stranger,464.0,b,square
0u5okhrpdu,21.0,Wendy,True,Wendy,Friend,460.0,n,triangle
0u5okhrpdu,22.0,Beyonce,True,Beyonce,Stranger,477.0,b,square
0u5okhrpdu,23.0,Beyonce,True,Beyonce,Stranger,439.0,b,square
0u5okhrpdu,24.0,Beyonce,True,Beyonce,Stranger,426.0,b,square
0u5okhrpdu,25.0,Beyonce,True,Beyonce,Stranger,513.0,b,square
0u5okhrpdu,26.0,Wendy,True,Wendy,Friend,428.0,n,triangle
0u5okhrpdu,27.0,You,True,You,Self,526.0,v,circle
0u5okhrpdu,28.0,Wendy,True,Wendy,Friend,790.0,n,triangle
0u5okhrpdu,29.0,Wendy,True,Wendy,Friend,604.0,n,triangle
0u5okhrpdu,30.0,You,True,You,Self,470.0,v,circle
0u5okhrpdu,31.0,You,True,You,Self,867.0,v,circle
0u5okhrpdu,32.0,Wendy,True,Wendy,Friend,514.0,n,triangle
0u5okhrpdu,33.0,Beyonce,True,Beyonce,Stranger,621.0,b,square
0u5okhrpdu,34.0,Beyonce,True,Beyonce,Stranger,456.0,b,square
0u5okhrpdu,35.0,Beyonce,True,Beyonce,Stranger,544.0,b,square
gb480fgn5a,1.0,Eminem,True,Eminem,Stranger,3379.0,b,square
gb480fgn5a,2.0,You,True,You,Self,1607.0,v,triangle
gb480fgn5a,3.0,Eminem,True,Eminem,Stranger,1724.0,b,square
gb480fgn5a,4.0,Eminem,True,Eminem,Stranger,648.0,b,square
gb480fgn5a,5.0,You,True,You,Self,989.0,v,triangle
gb480fgn5a,6.0,Bartek,True,Bartek,Friend,444.0,n,circle
gb480fgn5a,7.0,You,True,You,Self,787.0,v,triangle
gb480fgn5a,8.0,You,True,You,Self,570.0,v,triangle
gb480fgn5a,9.0,You,True,You,Self,722.0,v,triangle
gb480fgn5a,10.0,You,True,You,Self,503.0,v,triangle
gb480fgn5a,11.0,Eminem,True,Eminem,Stranger,487.0,b,square
gb480fgn5a,12.0,Eminem,True,Eminem,Stranger,433.0,b,square
gb480fgn5a,13.0,Bartek,True,Bartek,Friend,492.0,n,circle
gb480fgn5a,14.0,You,True,You,Self,607.0,v,triangle
gb480fgn5a,15.0,Bartek,True,Bartek,Friend,690.0,n,circle
gb480fgn5a,16.0,You,True,You,Self,636.0,v,triangle
gb480fgn5a,17.0,Bartek,True,Bartek,Friend,572.0,n,circle
gb480fgn5a,18.0,Eminem,True,Eminem,Stranger,721.0,b,square
gb480fgn5a,19.0,You,True,You,Self,701.0,v,triangle
x642abd37o,1.0,,False,Rihanna,Stranger,,,square
x642abd37o,2.0,You,True,You,Self,1545.0,v,circle
x642abd37o,3.0,Pabz,True,Pabz,Friend,847.0,n,triangle
x642abd37o,4.0,You,False,Pabz,Friend,997.0,v,triangle
x642abd37o,5.0,You,True,You,Self,573.0,v,circle
x642abd37o,6.0,Pabz,True,Pabz,Friend,441.0,n,triangle
x642abd37o,7.0,Rihanna,True,Rihanna,Stranger,693.0,b,square
x642abd37o,8.0,You,True,You,Self,1193.0,v,circle
x642abd37o,9.0,You,True,You,Self,753.0,v,circle
x642abd37o,10.0,Pabz,True,Pabz,Friend,962.0,n,triangle
x642abd37o,11.0,Rihanna,True,Rihanna,Stranger,1117.0,b,square
x642abd37o,12.0,You,True,You,Self,1304.0,v,circle
x642abd37o,13.0,You,True,You,Self,652.0,v,circle
x642abd37o,14.0,Rihanna,True,Rihanna,Stranger,1517.0,b,square
x642abd37o,15.0,You,True,You,Self,614.0,v,circle
x642abd37o,16.0,Rihanna,True,Rihanna,Stranger,704.0,b,square
x642abd37o,17.0,You,True,You,Self,721.0,v,circle
x642abd37o,18.0,You,True,You,Self,647.0,v,circle
x642abd37o,19.0,Rihanna,True,Rihanna,Stranger,586.0,b,square
x642abd37o,20.0,Pabz,True,Pabz,Friend,496.0,n,triangle
x642abd37o,21.0,You,True,You,Self,984.0,v,circle
x642abd37o,22.0,You,True,You,Self,615.0,v,circle
x642abd37o,23.0,Pabz,True,Pabz,Friend,724.0,n,triangle
km4r9pss22,1.0,,False,Kuba,Friend,,,triangle
km4r9pss22,2.0,You,True,You,Self,5046.0,v,square
km4r9pss22,3.0,Eminem,False,Kuba,Friend,5043.0,b,triangle
km4r9pss22,4.0,Eminem,True,Eminem,Stranger,5334.0,b,circle
km4r9pss22,5.0,You,True,You,Self,2680.0,v,square
km4r9pss22,6.0,Kuba,True,Kuba,Friend,2550.0,n,triangle
km4r9pss22,7.0,You,True,You,Self,1944.0,v,square
km4r9pss22,8.0,You,True,You,Self,2749.0,v,square
km4r9pss22,9.0,Eminem,True,Eminem,Stranger,1679.0,b,circle
km4r9pss22,10.0,You,True,You,Self,1672.0,v,square
km4r9pss22,11.0,You,True,You,Self,1724.0,v,square
km4r9pss22,12.0,Eminem,True,Eminem,Stranger,1360.0,b,circle
km4r9pss22,13.0,Kuba,True,Kuba,Friend,1401.0,n,triangle
km4r9pss22,14.0,Kuba,True,Kuba,Friend,1250.0,n,triangle
km4r9pss22,15.0,You,True,You,Self,1165.0,v,square
km4r9pss22,16.0,You,True,You,Self,1275.0,v,square
km4r9pss22,17.0,Eminem,True,Eminem,Stranger,1740.0,b,circle
km4r9pss22,18.0,Kuba,True,Kuba,Friend,1599.0,n,triangle
km4r9pss22,19.0,You,True,You,Self,1554.0,v,square
km4r9pss22,20.0,Eminem,True,Eminem,Stranger,940.0,b,circle
km4r9pss22,21.0,You,True,You,Self,1015.0,v,square
km4r9pss22,22.0,Kuba,True,Kuba,Friend,891.0,n,triangle
una9c3lodk,1.0,You,True,You,Self,2979.0,v,triangle
una9c3lodk,2.0,You,True,You,Self,1150.0,v,triangle
una9c3lodk,3.0,Niki,True,Niki,Friend,1583.0,n,circle
una9c3lodk,4.0,Beyonce,True,Beyonce,Stranger,681.0,b,square
una9c3lodk,5.0,Beyonce,True,Beyonce,Stranger,801.0,b,square
una9c3lodk,6.0,Niki,True,Niki,Friend,555.0,n,circle
una9c3lodk,7.0,You,True,You,Self,628.0,v,triangle
una9c3lodk,8.0,You,True,You,Self,1003.0,v,triangle
una9c3lodk,9.0,Niki,True,Niki,Friend,652.0,n,circle
una9c3lodk,10.0,You,True,You,Self,1038.0,v,triangle
una9c3lodk,11.0,Beyonce,True,Beyonce,Stranger,547.0,b,square
una9c3lodk,12.0,Beyonce,True,Beyonce,Stranger,484.0,b,square
una9c3lodk,13.0,Beyonce,True,Beyonce,Stranger,575.0,b,square
una9c3lodk,14.0,Beyonce,True,Beyonce,Stranger,568.0,b,square
una9c3lodk,15.0,Beyonce,True,Beyonce,Stranger,712.0,b,square
una9c3lodk,16.0,Niki,True,Niki,Friend,649.0,n,circle
una9c3lodk,17.0,Beyonce,True,Beyonce,Stranger,629.0,b,square
una9c3lodk,18.0,Beyonce,True,Beyonce,Stranger,731.0,b,square
una9c3lodk,19.0,You,True,You,Self,526.0,v,triangle
sg0t2p08et,1.0,Eminem,True,Eminem,Stranger,3577.0,b,circle
sg0t2p08et,2.0,You,True,You,Self,1011.0,v,square
sg0t2p08et,3.0,Daniel,True,Daniel,Friend,1144.0,n,triangle
sg0t2p08et,4.0,Daniel,True,Daniel,Friend,687.0,n,triangle
sg0t2p08et,5.0,You,True,You,Self,913.0,v,square
sg0t2p08et,6.0,Daniel,True,Daniel,Friend,569.0,n,triangle
sg0t2p08et,7.0,You,True,You,Self,1273.0,v,square
sg0t2p08et,8.0,Eminem,False,Daniel,Friend,2617.0,b,triangle
sg0t2p08et,9.0,Eminem,True,Eminem,Stranger,859.0,b,circle
sg0t2p08et,10.0,Eminem,True,Eminem,Stranger,832.0,b,circle
sg0t2p08et,11.0,You,True,You,Self,627.0,v,square
sg0t2p08et,12.0,Daniel,True,Daniel,Friend,442.0,n,triangle
sg0t2p08et,13.0,Eminem,True,Eminem,Stranger,3118.0,b,circle
sg0t2p08et,14.0,You,True,You,Self,894.0,v,square
sg0t2p08et,15.0,Daniel,True,Daniel,Friend,914.0,n,triangle
sg0t2p08et,16.0,Daniel,True,Daniel,Friend,1137.0,n,triangle
sg0t2p08et,17.0,Daniel,True,Daniel,Friend,643.0,n,triangle
sg0t2p08et,18.0,Daniel,True,Daniel,Friend,517.0,n,triangle
sg0t2p08et,19.0,Daniel,True,Daniel,Friend,555.0,n,triangle
sg0t2p08et,20.0,You,True,You,Self,736.0,v,square
sg0t2p08et,21.0,You,True,You,Self,1416.0,v,square
sg0t2p08et,22.0,You,True,You,Self,447.0,v,square
sg0t2p08et,23.0,Eminem,True,Eminem,Stranger,568.0,b,circle
sg0t2p08et,24.0,Eminem,True,Eminem,Stranger,623.0,b,circle
sg0t2p08et,25.0,Daniel,True,Daniel,Friend,451.0,n,triangle
sg0t2p08et,26.0,Eminem,False,You,Self,598.0,b,square
sg0t2p08et,27.0,Eminem,True,Eminem,Stranger,1054.0,b,circle
sg0t2p08et,28.0,Daniel,True,Daniel,Friend,1009.0,n,triangle
sg0t2p08et,29.0,Daniel,True,Daniel,Friend,958.0,n,triangle
sg0t2p08et,30.0,Eminem,True,Eminem,Stranger,809.0,b,circle
sg0t2p08et,31.0,Daniel,True,Daniel,Friend,1013.0,n,triangle
sg0t2p08et,32.0,Daniel,True,Daniel,Friend,1418.0,n,triangle
sg0t2p08et,33.0,Eminem,True,Eminem,Stranger,659.0,b,circle
sg0t2p08et,34.0,You,True,You,Self,524.0,v,square
sg0t2p08et,35.0,Eminem,True,Eminem,Stranger,868.0,b,circle
sg0t2p08et,36.0,Daniel,False,You,Self,919.0,n,square
sg0t2p08et,37.0,Eminem,True,Eminem,Stranger,854.0,b,circle
sg0t2p08et,38.0,You,True,You,Self,614.0,v,square
sg0t2p08et,39.0,Eminem,True,Eminem,Stranger,951.0,b,circle
sg0t2p08et,40.0,Eminem,True,Eminem,Stranger,945.0,b,circle
sg0t2p08et,41.0,Daniel,True,Daniel,Friend,1306.0,n,triangle
sg0t2p08et,42.0,You,True,You,Self,1474.0,v,square
sg0t2p08et,43.0,Daniel,True,Daniel,Friend,1201.0,n,triangle
sg0t2p08et,44.0,You,True,You,Self,1449.0,v,square
sg0t2p08et,45.0,Eminem,True,Eminem,Stranger,1240.0,b,circle
sg0t2p08et,46.0,You,True,You,Self,1096.0,v,square
sg0t2p08et,47.0,Eminem,True,Eminem,Stranger,1173.0,b,circle
sg0t2p08et,48.0,Daniel,True,Daniel,Friend,843.0,n,triangle
sg0t2p08et,49.0,Daniel,True,Daniel,Friend,746.0,n,triangle
sg0t2p08et,50.0,You,True,You,Self,399.0,v,square
sg0t2p08et,51.0,You,True,You,Self,590.0,v,square
sg0t2p08et,52.0,Eminem,True,Eminem,Stranger,444.0,b,circle
sg0t2p08et,53.0,You,True,You,Self,560.0,v,square
sg0t2p08et,54.0,Eminem,True,Eminem,Stranger,663.0,b,circle
sg0t2p08et,55.0,You,True,You,Self,566.0,v,square
rqtdu85y4b,1.0,,False,Asa,Friend,,,square
rqtdu85y4b,2.0,You,True,You,Self,3150.0,v,triangle
rqtdu85y4b,3.0,Beyonce,True,Beyonce,Stranger,2148.0,b,circle
rqtdu85y4b,4.0,Beyonce,True,Beyonce,Stranger,1235.0,b,circle
rqtdu85y4b,5.0,You,True,You,Self,1380.0,v,triangle
rqtdu85y4b,6.0,Asa,True,Asa,Friend,1175.0,n,square
rqtdu85y4b,7.0,You,True,You,Self,902.0,v,triangle
rqtdu85y4b,8.0,Beyonce,False,Asa,Friend,789.0,b,square
rqtdu85y4b,9.0,Beyonce,True,Beyonce,Stranger,917.0,b,circle
rqtdu85y4b,10.0,Beyonce,True,Beyonce,Stranger,742.0,b,circle
rqtdu85y4b,11.0,Beyonce,True,Beyonce,Stranger,700.0,b,circle
rqtdu85y4b,12.0,Beyonce,True,Beyonce,Stranger,621.0,b,circle
rqtdu85y4b,13.0,Beyonce,True,Beyonce,Stranger,726.0,b,circle
rqtdu85y4b,14.0,You,True,You,Self,669.0,v,triangle
rqtdu85y4b,15.0,You,True,You,Self,661.0,v,triangle
rqtdu85y4b,16.0,Asa,True,Asa,Friend,678.0,n,square
rqtdu85y4b,17.0,You,True,You,Self,605.0,v,triangle
rqtdu85y4b,18.0,You,True,You,Self,734.0,v,triangle
rqtdu85y4b,19.0,Asa,True,Asa,Friend,502.0,n,square
rqtdu85y4b,20.0,You,True,You,Self,598.0,v,triangle
rqtdu85y4b,21.0,Asa,True,Asa,Friend,557.0,n,square
rqtdu85y4b,22.0,Beyonce,True,Beyonce,Stranger,661.0,b,circle
rqtdu85y4b,23.0,Asa,True,Asa,Friend,558.0,n,square
rqtdu85y4b,24.0,You,True,You,Self,629.0,v,triangle
rqtdu85y4b,25.0,Beyonce,True,Beyonce,Stranger,636.0,b,circle
rqtdu85y4b,26.0,Beyonce,True,Beyonce,Stranger,591.0,b,circle
rqtdu85y4b,27.0,Asa,True,Asa,Friend,646.0,n,square
gf04fuxx3w,1.0,You,False,Dora,Friend,5295.0,v,circle
gf04fuxx3w,2.0,You,True,You,Self,4262.0,v,square
gf04fuxx3w,3.0,Pink,True,Pink,Stranger,5031.0,b,triangle
gf04fuxx3w,4.0,You,True,You,Self,1484.0,v,square
gf04fuxx3w,5.0,Pink,True,Pink,Stranger,1575.0,b,triangle
gf04fuxx3w,6.0,Dora,True,Dora,Friend,1732.0,n,circle
gf04fuxx3w,7.0,Pink,False,Dora,Friend,4528.0,b,circle
gf04fuxx3w,8.0,Dora,True,Dora,Friend,1782.0,n,circle
gf04fuxx3w,9.0,You,True,You,Self,1293.0,v,square
gf04fuxx3w,10.0,,False,You,Self,,,square
gf04fuxx3w,11.0,,False,Dora,Friend,,,circle
gf04fuxx3w,12.0,You,True,You,Self,5163.0,v,square
gf04fuxx3w,13.0,Pink,True,Pink,Stranger,1342.0,b,triangle
gf04fuxx3w,14.0,You,True,You,Self,715.0,v,square
gf04fuxx3w,15.0,Dora,True,Dora,Friend,716.0,n,circle
gf04fuxx3w,16.0,You,True,You,Self,1180.0,v,square
gf04fuxx3w,17.0,Dora,True,Dora,Friend,958.0,n,circle
gf04fuxx3w,18.0,Pink,True,Pink,Stranger,1735.0,b,triangle
gf04fuxx3w,19.0,Pink,True,Pink,Stranger,613.0,b,triangle
gf04fuxx3w,20.0,You,True,You,Self,1972.0,v,square
gf04fuxx3w,21.0,Pink,True,Pink,Stranger,1236.0,b,triangle
gf04fuxx3w,22.0,Pink,True,Pink,Stranger,593.0,b,triangle
gf04fuxx3w,23.0,Pink,True,Pink,Stranger,1140.0,b,triangle
gf04fuxx3w,24.0,Dora,True,Dora,Friend,817.0,n,circle
gf04fuxx3w,25.0,Pink,True,Pink,Stranger,803.0,b,triangle
gf04fuxx3w,26.0,Dora,True,Dora,Friend,2015.0,n,circle
gf04fuxx3w,27.0,You,True,You,Self,794.0,v,square
gf04fuxx3w,28.0,Pink,True,Pink,Stranger,1451.0,b,triangle
gf04fuxx3w,29.0,Dora,False,You,Self,1319.0,n,square
gf04fuxx3w,30.0,Pink,True,Pink,Stranger,702.0,b,triangle
gf04fuxx3w,31.0,You,True,You,Self,1319.0,v,square
gf04fuxx3w,32.0,Dora,True,Dora,Friend,1134.0,n,circle
gf04fuxx3w,33.0,Dora,True,Dora,Friend,703.0,n,circle
gf04fuxx3w,34.0,You,True,You,Self,905.0,v,square
gf04fuxx3w,35.0,You,True,You,Self,1285.0,v,square
gf04fuxx3w,36.0,Pink,True,Pink,Stranger,1003.0,b,triangle
gf04fuxx3w,37.0,Pink,True,Pink,Stranger,562.0,b,triangle
gf04fuxx3w,38.0,Pink,True,Pink,Stranger,502.0,b,triangle
gf04fuxx3w,39.0,Dora,True,Dora,Friend,938.0,n,circle
gf04fuxx3w,40.0,You,True,You,Self,1970.0,v,square
gf04fuxx3w,41.0,Pink,True,Pink,Stranger,643.0,b,triangle
gf04fuxx3w,42.0,Dora,True,Dora,Friend,658.0,n,circle
gf04fuxx3w,43.0,Dora,True,Dora,Friend,1053.0,n,circle
gf04fuxx3w,44.0,Dora,True,Dora,Friend,536.0,n,circle
gf04fuxx3w,45.0,Dora,True,Dora,Friend,377.0,n,circle
gf04fuxx3w,46.0,Pink,True,Pink,Stranger,605.0,b,triangle
gf04fuxx3w,47.0,Pink,True,Pink,Stranger,436.0,b,triangle
gf04fuxx3w,48.0,You,True,You,Self,680.0,v,square
oyah60q1b7,1.0,You,False,Sting,Stranger,4633.0,v,triangle
oyah60q1b7,2.0,Sting,False,You,Self,962.0,b,square
oyah60q1b7,3.0,Sting,True,Sting,Stranger,2598.0,b,triangle
oyah60q1b7,4.0,Sting,False,You,Self,802.0,b,square
oyah60q1b7,5.0,You,True,You,Self,3345.0,v,square
oyah60q1b7,6.0,Evan,True,Evan,Friend,1156.0,n,circle
oyah60q1b7,7.0,You,True,You,Self,1970.0,v,square
oyah60q1b7,8.0,You,True,You,Self,828.0,v,square
oyah60q1b7,9.0,Sting,True,Sting,Stranger,731.0,b,triangle
oyah60q1b7,10.0,Evan,True,Evan,Friend,558.0,n,circle
oyah60q1b7,11.0,You,True,You,Self,1164.0,v,square
oyah60q1b7,12.0,Evan,True,Evan,Friend,958.0,n,circle
oyah60q1b7,13.0,Evan,True,Evan,Friend,592.0,n,circle
oyah60q1b7,14.0,You,True,You,Self,825.0,v,square
oyah60q1b7,15.0,You,True,You,Self,650.0,v,square
oyah60q1b7,16.0,You,True,You,Self,793.0,v,square
oyah60q1b7,17.0,You,False,Sting,Stranger,395.0,v,triangle
oyah60q1b7,18.0,Sting,False,You,Self,569.0,b,square
oyah60q1b7,19.0,You,False,Sting,Stranger,845.0,v,triangle
oyah60q1b7,20.0,You,True,You,Self,687.0,v,square
oyah60q1b7,21.0,Sting,True,Sting,Stranger,669.0,b,triangle
oyah60q1b7,22.0,Sting,True,Sting,Stranger,1010.0,b,triangle
oyah60q1b7,23.0,Evan,True,Evan,Friend,783.0,n,circle
oyah60q1b7,24.0,Sting,True,Sting,Stranger,520.0,b,triangle
oyah60q1b7,25.0,You,False,Sting,Stranger,567.0,v,triangle
oyah60q1b7,26.0,Sting,True,Sting,Stranger,985.0,b,triangle
oyah60q1b7,27.0,Evan,True,Evan,Friend,574.0,n,circle
oyah60q1b7,28.0,Evan,True,Evan,Friend,859.0,n,circle
oyah60q1b7,29.0,Sting,True,Sting,Stranger,631.0,b,triangle
oyah60q1b7,30.0,Sting,True,Sting,Stranger,666.0,b,triangle
oyah60q1b7,31.0,You,True,You,Self,1159.0,v,square
oyah60q1b7,32.0,Sting,True,Sting,Stranger,968.0,b,triangle
oyah60q1b7,33.0,Evan,True,Evan,Friend,665.0,n,circle
oyah60q1b7,34.0,Evan,True,Evan,Friend,1348.0,n,circle
oyah60q1b7,35.0,Sting,True,Sting,Stranger,516.0,b,triangle
oyah60q1b7,36.0,Sting,False,Evan,Friend,1038.0,b,circle
oyah60q1b7,37.0,Sting,True,Sting,Stranger,814.0,b,triangle
oyah60q1b7,38.0,Sting,True,Sting,Stranger,626.0,b,triangle
oyah60q1b7,39.0,You,True,You,Self,587.0,v,square
oyah60q1b7,40.0,Evan,True,Evan,Friend,494.0,n,circle
oyah60q1b7,41.0,Evan,True,Evan,Friend,1009.0,n,circle
oyah60q1b7,42.0,You,True,You,Self,968.0,v,square
oyah60q1b7,43.0,Sting,True,Sting,Stranger,639.0,b,triangle
oyah60q1b7,44.0,Sting,True,Sting,Stranger,818.0,b,triangle
oyah60q1b7,45.0,You,True,You,Self,1290.0,v,square
oyah60q1b7,46.0,You,True,You,Self,623.0,v,square
oyah60q1b7,47.0,Sting,False,You,Self,482.0,b,square
oyah60q1b7,48.0,Sting,True,Sting,Stranger,1007.0,b,triangle
oyah60q1b7,49.0,You,True,You,Self,534.0,v,square
oyah60q1b7,50.0,You,True,You,Self,928.0,v,square
oyah60q1b7,51.0,You,True,You,Self,344.0,v,square
oyah60q1b7,52.0,Evan,True,Evan,Friend,803.0,n,circle
oyah60q1b7,53.0,Evan,True,Evan,Friend,606.0,n,circle
oyah60q1b7,54.0,Evan,True,Evan,Friend,953.0,n,circle
oyah60q1b7,55.0,You,True,You,Self,568.0,v,square
oyah60q1b7,56.0,You,False,Evan,Friend,524.0,v,circle
oyah60q1b7,57.0,Evan,True,Evan,Friend,789.0,n,circle
oyah60q1b7,58.0,You,True,You,Self,725.0,v,square
oyah60q1b7,59.0,Sting,False,You,Self,627.0,b,square
oyah60q1b7,60.0,Sting,True,Sting,Stranger,679.0,b,triangle
oyah60q1b7,61.0,You,True,You,Self,636.0,v,square
oyah60q1b7,62.0,Sting,True,Sting,Stranger,572.0,b,triangle
oyah60q1b7,63.0,Evan,True,Evan,Friend,594.0,n,circle
oyah60q1b7,64.0,Evan,False,You,Self,1698.0,n,square
oyah60q1b7,65.0,Evan,True,Evan,Friend,784.0,n,circle
oyah60q1b7,66.0,Sting,True,Sting,Stranger,629.0,b,triangle
oyah60q1b7,67.0,Evan,True,Evan,Friend,1682.0,n,circle
oyah60q1b7,68.0,You,False,Sting,Stranger,569.0,v,triangle
oyah60q1b7,69.0,Sting,True,Sting,Stranger,492.0,b,triangle
oyah60q1b7,70.0,Evan,True,Evan,Friend,1229.0,n,circle
oyah60q1b7,71.0,You,True,You,Self,1213.0,v,square
oyah60q1b7,72.0,Evan,True,Evan,Friend,1453.0,n,circle
oyah60q1b7,73.0,Sting,True,Sting,Stranger,626.0,b,triangle
oyah60q1b7,74.0,Evan,True,Evan,Friend,1179.0,n,circle
oyah60q1b7,75.0,Sting,False,Evan,Friend,559.0,b,circle
oyah60q1b7,76.0,Sting,True,Sting,Stranger,763.0,b,triangle
oyah60q1b7,77.0,Evan,True,Evan,Friend,1502.0,n,circle
oyah60q1b7,78.0,Sting,True,Sting,Stranger,903.0,b,triangle
oyah60q1b7,79.0,Evan,True,Evan,Friend,736.0,n,circle
oyah60q1b7,80.0,Sting,False,Evan,Friend,1266.0,b,circle
oyah60q1b7,81.0,Sting,True,Sting,Stranger,913.0,b,triangle
oyah60q1b7,82.0,Sting,True,Sting,Stranger,1080.0,b,triangle
oyah60q1b7,83.0,You,True,You,Self,710.0,v,square
oyah60q1b7,84.0,Evan,True,Evan,Friend,597.0,n,circle
oyah60q1b7,85.0,Sting,True,Sting,Stranger,1010.0,b,triangle
oyah60q1b7,86.0,Evan,True,Evan,Friend,608.0,n,circle
oyah60q1b7,87.0,You,True,You,Self,627.0,v,square
oyah60q1b7,88.0,Evan,True,Evan,Friend,750.0,n,circle
oyah60q1b7,89.0,Sting,True,Sting,Stranger,519.0,b,triangle
oyah60q1b7,90.0,Evan,True,Evan,Friend,622.0,n,circle
oyah60q1b7,91.0,Sting,True,Sting,Stranger,434.0,b,triangle
oyah60q1b7,92.0,You,True,You,Self,504.0,v,square
oyah60q1b7,93.0,You,True,You,Self,790.0,v,square
